roll,pitch,yaw, gyro_x, gyro_y, gyro_z, accel_x, accel_y, accel_z, EMG0, EMG1, EMG2, EMG3, EMG4, EMG5, EMG6, EMG7, time
-0.0481111,-0.1011,2.7529,-162.75,140.125,-171.875,1.06543,1.17334,2.16455,0,0,0,0,0,0,0,0,424
-0.0868945,-0.0665638,2.69588,-143.313,124.875,-153.5,0.960449,0.967773,1.62109,0,0,0,0,0,0,0,0,441
-0.0868945,-0.0665638,2.69588,-143.313,124.875,-153.5,0.960449,0.967773,1.62109,0,0,0,0,0,0,0,0,458
-0.118199,-0.0403577,2.64285,-110.438,103.813,-141.313,0.813965,0.634277,1.02051,0,0,0,0,0,0,0,0,475
-0.139658,-0.0251385,2.59455,-74.125,79.625,-128.938,1.08984,0.384766,0.734375,0,0,0,0,0,0,0,0,493
-0.152759,-0.00906863,2.55427,-46,66,-106.938,0.212402,0.42041,-0.147949,0,0,0,0,0,0,0,0,510
-0.152759,-0.00906863,2.55427,-46,66,-106.938,0.212402,0.42041,-0.147949,0,0,0,0,0,0,0,0,527
-0.147596,-0.0199391,2.51223,-7.875,35.5,-38.8125,0.586914,0.228516,0.181641,0,0,0,0,0,0,0,0,544
-0.147596,-0.0199391,2.51223,-7.875,35.5,-38.8125,0.586914,0.228516,0.181641,0,0,0,0,0,0,0,0,560
-0.148,-0.0237321,2.50489,-10.9375,30.9375,-16.5625,0.556641,0.26416,-0.850586,0,0,0,0,0,0,0,0,577
-0.148,-0.0237321,2.50489,-10.9375,30.9375,-16.5625,0.556641,0.26416,-0.850586,0,0,0,0,0,0,0,0,593
-0.148,-0.0237321,2.50489,-10.9375,30.9375,-16.5625,0.556641,0.26416,-0.850586,0,0,0,0,0,0,0,0,609
-0.140821,-0.0463846,2.50944,13.125,5.25,16.5,0.987305,0.22168,-0.659668,0,0,0,0,0,0,0,0,626
-0.140821,-0.0463846,2.50944,13.125,5.25,16.5,0.987305,0.22168,-0.659668,-6,-14,-4,0,-5,-2,-53,-4,643
-0.131037,-0.0516918,2.52298,26.625,-0.125,39.1875,0.270996,0.119141,-0.54834,2,0,6,3,-1,4,1,-5,661
-0.131037,-0.0516918,2.52298,26.625,-0.125,39.1875,0.270996,0.119141,-0.54834,-3,4,-2,-6,-1,2,13,-1,677
-0.0965522,-0.154049,2.69231,40.1875,-92.3125,135.25,0.865234,0.26123,0.787598,-3,41,13,43,8,6,24,-1,733
-0.0965522,-0.154049,2.69231,40.1875,-92.3125,135.25,0.865234,0.26123,0.787598,4,-28,-56,25,-7,-11,34,1,750
-0.0729648,-0.185119,2.74864,94.8125,-102.125,150.938,0.922363,0.969238,1.8335,-1,-39,-11,4,-5,6,-42,-1,766
-0.0425538,-0.247461,2.81392,127.188,-189,172.25,0.64502,0.994629,2.40918,-8,21,39,-35,-17,-1,-77,-1,785
-0.0102631,-0.319253,2.88463,149.188,-210.875,189.063,0.841309,0.668945,2.66162,-13,-24,16,6,-19,7,-128,-13,802
0.0204113,-0.393885,2.9409,144.313,-213.25,152.375,0.902344,0.726074,2.54102,-37,21,25,5,17,-17,-27,-19,819
0.039848,-0.455625,2.98359,106.063,-173.5,116.813,0.899414,0.640625,2.20361,6,-22,-10,11,8,-3,-39,10,837
0.0441878,-0.503094,3.01307,40.6875,-140.938,86.375,0.638184,0.787598,2.09814,36,14,-1,-22,4,-8,127,15,856
0.0441878,-0.503094,3.01307,40.6875,-140.938,86.375,0.638184,0.787598,2.09814,17,18,9,-38,-40,8,47,1,873
0.0380338,-0.543201,3.03973,11.4375,-125.125,76.875,0.213379,0.681152,1.81396,-8,-20,23,-4,-4,0,-99,-3,890
0.0104435,-0.609559,3.09864,3.875,-102.5,78.375,-0.126953,0.369141,1.03516,-7,-13,15,-10,4,8,-44,0,908
0.00455528,-0.623866,3.12628,18.1875,-88.8125,72.875,-0.215332,0.19873,0.885254,-5,2,-3,-1,0,-7,6,-4,926
0.00455528,-0.623866,3.12628,18.1875,-88.8125,72.875,-0.215332,0.19873,0.885254,-2,-4,-2,-10,-10,-9,-24,-4,944
0.00179919,-0.636747,-3.12599,38.875,-86.1875,75.9375,-0.377441,0.114258,0.680176,-3,-26,-3,-3,-3,-1,-31,-2,960
0.00179919,-0.636747,-3.12599,38.875,-86.1875,75.9375,-0.377441,0.114258,0.680176,1,-8,-7,1,-1,1,24,4,977
0.00124713,-0.648406,-3.0905,59.125,-79.6875,81.375,-0.461914,0.0141602,0.504395,2,12,-3,-5,-10,0,52,0,994
-0.00419703,-0.651594,-3.00171,36.5625,-16.25,37.75,-0.628418,-0.29834,0.0908203,-1,-17,4,2,0,-2,9,-1,1051
-0.00419703,-0.651594,-3.00171,36.5625,-16.25,37.75,-0.628418,-0.29834,0.0908203,4,24,7,7,6,1,18,0,1067
-0.00419703,-0.651594,-3.00171,36.5625,-16.25,37.75,-0.628418,-0.29834,0.0908203,-3,-11,-8,-8,-1,4,-8,-1,1083
-0.0245109,-0.590775,-3.00325,-16.375,48.6875,-39.375,-0.879883,-0.462891,0.242188,-2,7,21,1,3,3,-6,1,1100
-0.0269651,-0.542839,-3.02976,-27.1875,79,-75.5625,-0.834961,-0.382324,0.30127,-2,7,21,1,3,3,-6,1,1117
-0.0269651,-0.542839,-3.02976,-27.1875,79,-75.5625,-0.834961,-0.382324,0.30127,4,-5,-34,27,8,8,-3,1,1134
-0.0269651,-0.542839,-3.02976,-27.1875,79,-75.5625,-0.834961,-0.382324,0.30127,-3,-14,-15,-45,-12,-7,-13,-1,1152
-0.0269651,-0.542839,-3.02976,-27.1875,79,-75.5625,-0.834961,-0.382324,0.30127,5,0,29,10,-1,6,26,0,1169
-0.0269651,-0.542839,-3.02976,-27.1875,79,-75.5625,-0.834961,-0.382324,0.30127,-8,-12,-73,-60,-11,-10,5,-4,1186
-0.0223601,-0.317863,2.98664,-117.188,140.438,-161.625,1.08398,1.40918,3.02686,-6,-2,-22,33,-7,-15,-5,-2,1203
-0.0547359,-0.276299,2.93341,-137.438,124.75,-141.438,1.59375,1.3457,2.80078,12,22,5,16,3,12,-59,1,1221
-0.0547359,-0.276299,2.93341,-137.438,124.75,-141.438,1.59375,1.3457,2.80078,-2,2,24,-2,6,-10,24,2,1238
-0.0547359,-0.276299,2.93341,-137.438,124.75,-141.438,1.59375,1.3457,2.80078,1,-1,4,1,1,-6,-2,-5,1255
-0.121753,-0.178771,2.81015,-140.625,158.25,-155.938,1.16797,1.03369,1.9082,-7,-3,0,-9,-3,-2,2,-1,1272
-0.151813,-0.138803,2.75267,-128.813,148.313,-141.25,0.92334,0.761719,1.48633,-3,19,18,1,-3,1,-11,-6,1290
-0.151813,-0.138803,2.75267,-128.813,148.313,-141.25,0.92334,0.761719,1.48633,1,4,-1,6,0,-2,-33,2,1308
-0.189173,-0.0821269,2.6233,-40.25,63.4375,-90.4375,0.569824,0.368164,0.381836,0,0,1,-6,-3,-10,-41,0,1379
-0.189173,-0.0821269,2.6233,-40.25,63.4375,-90.4375,0.569824,0.368164,0.381836,-1,0,1,-7,1,-1,-12,1,1397
-0.196919,-0.0913061,2.56508,-20.125,35.8125,-33.375,0.514648,0.17334,-0.404297,0,3,-5,-5,-6,-4,-9,3,1413
-0.196919,-0.0913061,2.56508,-20.125,35.8125,-33.375,0.514648,0.17334,-0.404297,0,-7,-6,-8,0,0,22,0,1430
-0.189396,-0.109038,2.55892,15.1875,9.5,6.0625,0.603516,0.17041,-0.520508,0,-2,-5,-6,-3,-2,5,-5,1447
-0.179605,-0.122454,2.56829,18.1875,7.6875,30.0625,0.699707,0.274414,-0.469238,1,-11,4,6,1,2,-5,-3,1464
-0.179605,-0.122454,2.56829,18.1875,7.6875,30.0625,0.699707,0.274414,-0.469238,-1,3,1,5,0,7,13,1,1482
-0.157195,-0.157056,2.62096,21.0625,-27.5,94.8125,0.66748,0.401855,-0.0893555,-8,-14,-19,-22,-3,6,-2,-6,1499
-0.157195,-0.157056,2.62096,21.0625,-27.5,94.8125,0.66748,0.401855,-0.0893555,0,10,52,55,17,5,30,4,1516
-0.154119,-0.171664,2.66619,22.4375,-49.1875,122.875,0.787109,0.371094,0.353027,-6,-14,-16,-43,-14,-19,7,-4,1534
-0.154119,-0.171664,2.66619,22.4375,-49.1875,122.875,0.787109,0.371094,0.353027,14,21,30,16,0,-2,62,4,1551
-0.12735,-0.22286,2.78264,85.3125,-105.5,161.063,0.994629,0.838867,1.88281,19,-11,14,-3,7,58,-21,3,1568
-0.0944694,-0.277852,2.84837,140.875,-176.875,163.875,0.720215,0.703125,2.57227,37,-29,-1,-22,-25,9,-128,-3,1585
-0.0944694,-0.277852,2.84837,140.875,-176.875,163.875,0.720215,0.703125,2.57227,-25,-25,45,-4,0,24,-124,0,1602
-0.0944694,-0.277852,2.84837,140.875,-176.875,163.875,0.720215,0.703125,2.57227,13,-12,-87,-4,-13,-17,-107,-9,1620
-0.0244571,-0.418857,2.97599,146.5,-212,151,1.01465,0.730469,2.37402,-16,2,65,81,8,-19,-30,-1,1637
-0.0382104,-0.558319,3.10873,27.9375,-130.813,95.6875,0.198242,0.585938,1.79199,-4,0,-19,-2,-1,-3,-16,-1,1703
-0.0429767,-0.592294,3.14105,28.1875,-116.438,78.4375,-0.130859,0.529297,1.43213,7,24,0,-7,3,1,30,-2,1720
-0.0429767,-0.592294,3.14105,28.1875,-116.438,78.4375,-0.130859,0.529297,1.43213,7,-16,-3,-7,4,-1,-27,-3,1737
-0.0429767,-0.592294,3.14105,28.1875,-116.438,78.4375,-0.130859,0.529297,1.43213,-2,-17,1,1,6,4,8,0,1755
-0.0400163,-0.610279,-3.05486,46.6875,-47.3125,74.875,-0.52002,0.0708008,0.462402,-1,11,-3,-4,0,4,29,-3,1773
-0.0400163,-0.610279,-3.05486,46.6875,-47.3125,74.875,-0.52002,0.0708008,0.462402,-3,-12,-3,-8,7,2,6,1,1790
-0.0516774,-0.592868,-2.99818,32.0625,-18.6875,46.25,-0.774414,-0.300293,0.12207,-3,-51,2,4,2,9,2,-3,1807
-0.0622616,-0.57571,-2.9855,14.8125,-5.9375,13.5625,-0.868164,-0.441895,0.0996094,6,28,1,-3,-4,-12,1,0,1824
-0.0622616,-0.57571,-2.9855,14.8125,-5.9375,13.5625,-0.868164,-0.441895,0.0996094,-6,0,-20,-13,-7,-21,-10,-2,1842
-0.0724155,-0.550388,-2.98412,-1,17.0625,-12.125,-0.878906,-0.464844,0.116211,-1,4,-19,-7,-8,-21,-3,-1,1859
-0.0724155,-0.550388,-2.98412,-1,17.0625,-12.125,-0.878906,-0.464844,0.116211,0,0,29,-5,-9,-3,4,3,1876
-0.0785543,-0.485544,-3.02091,-26.4375,46.25,-64.8125,-0.741211,-0.17334,0.349609,8,-5,-1,-18,-17,-8,1,-4,1894
-0.0759713,-0.448773,-3.05809,-38.1875,60.0625,-92.0625,-0.611328,-0.0893555,0.472168,6,-5,27,67,7,-23,1,2,1911
-0.0759713,-0.448773,-3.05809,-38.1875,60.0625,-92.0625,-0.611328,-0.0893555,0.472168,0,-15,-27,-32,-20,5,-5,2,1929
-0.0595119,-0.373461,3.11655,-54.6875,127.563,-146.063,-0.0766602,0.546875,1.40332,0,-18,-3,76,12,13,9,-4,1946
-0.0595119,-0.373461,3.11655,-54.6875,127.563,-146.063,-0.0766602,0.546875,1.40332,-16,-3,-3,-89,-11,15,-7,0,1962
-0.133362,-0.244854,2.93348,-164.563,134.25,-134.563,1.33105,1.54102,3.03711,9,-15,-24,11,1,-1,23,7,2026
-0.171703,-0.209086,2.87922,-144.813,124.438,-134.313,1.55127,1.13135,2.60986,-2,-7,-4,-1,4,2,30,8,2044
-0.171703,-0.209086,2.87922,-144.813,124.438,-134.313,1.55127,1.13135,2.60986,-2,8,25,-2,-8,7,-40,-4,2061
-0.171703,-0.209086,2.87922,-144.813,124.438,-134.313,1.55127,1.13135,2.60986,-6,12,-19,-1,-5,-10,-23,-4,2078
-0.171703,-0.209086,2.87922,-144.813,124.438,-134.313,1.55127,1.13135,2.60986,-1,9,25,10,4,-2,-48,-1,2095
-0.269345,-0.106127,2.71026,-115.5,126,-123.875,0.726074,0.595215,1.24463,-4,0,-13,-17,11,5,14,0,2112
-0.302577,-0.0801246,2.62195,-64.25,83.625,-94.1875,0.636719,0.290039,0.48584,1,0,1,3,1,-2,-23,-2,2129
-0.309261,-0.0849932,2.5891,-45.5625,52.6875,-80.3125,0.583008,0.251465,0.123535,-1,-2,-1,0,0,5,-13,-5,2146
-0.312906,-0.0935574,2.56537,-23.25,36.625,-58.5625,0.580078,0.179199,-0.215332,0,-6,-12,-2,0,-6,-2,0,2163
-0.314911,-0.100848,2.54917,-14.625,34.1875,-37.1875,0.571777,0.212402,-0.424805,2,0,-1,1,6,7,10,2,2180
-0.314911,-0.100848,2.54917,-14.625,34.1875,-37.1875,0.571777,0.212402,-0.424805,-1,-7,-4,-5,-4,-7,23,0,2197
-0.316415,-0.10825,2.53981,-12.9375,28.1875,-18.375,0.566895,0.26123,-0.503418,5,11,-2,-1,-4,-2,27,-2,2215
-0.313637,-0.119164,2.53891,4.0625,12.0625,1.625,0.569336,0.227051,-0.528809,-2,-4,-4,-3,-2,2,55,1,2232
-0.304975,-0.133728,2.54699,21.9375,-1,24.625,0.643555,0.241699,-0.497559,-2,11,7,-5,-4,1,-7,-3,2249
-0.290577,-0.149824,2.56759,29.625,-12.5,60.4375,0.70752,0.405273,-0.355469,1,7,6,2,-3,-1,4,-4,2266
-0.275648,-0.170802,2.60333,32.5,-35.1875,99.375,0.742188,0.477051,-0.279297,-2,2,7,7,0,0,-12,-2,2283
-0.271477,-0.213436,2.76358,53.5,-86.875,147.688,0.866699,0.588867,1.31348,0,9,6,-5,-7,10,-53,-1,2349
-0.265515,-0.244728,2.83237,61.75,-137.563,161.625,0.814453,1.13428,2.28662,-19,-30,-61,-46,-15,7,-76,-6,2366
-0.242638,-0.295105,2.91869,131.563,-199.75,194.688,0.665039,0.663574,2.75049,-32,36,28,-23,13,-3,8,-6,2382
-0.20759,-0.350157,3.00965,183.188,-208.938,205.938,1.05908,0.692383,2.70459,-8,8,-46,-19,14,-13,68,-8,2399
-0.180821,-0.40723,3.0914,163.313,-202.875,182.25,1.00098,0.483398,2.44141,46,12,12,-27,2,15,102,10,2416
-0.180821,-0.40723,3.0914,163.313,-202.875,182.25,1.00098,0.483398,2.44141,6,2,-1,27,-1,16,-47,2,2433
-0.161273,-0.457544,-3.12635,122.563,-172.875,148.5,0.963379,0.414551,2.10205,2,-21,-5,4,-17,14,-44,-6,2450
-0.158753,-0.50022,-3.07482,62.0625,-147.75,115.75,0.682617,0.560059,1.95654,-17,-18,15,-11,-16,-9,-9,-4,2467
-0.162269,-0.5409,-3.02854,44.1875,-148.875,99.0625,0.0537109,0.522461,1.78076,-16,-9,7,4,1,-10,64,-5,2484
-0.161547,-0.581325,-2.98608,58.0625,-147.188,86.125,-0.217773,0.39502,1.37695,-4,12,1,-3,2,-6,73,1,2501
-0.159578,-0.617728,-2.94827,61.8125,-129.813,72.8125,-0.208496,0.214844,0.963379,6,3,-9,1,-1,-18,-34,8,2517
-0.155701,-0.647595,-2.91927,57.1875,-107.188,52.9375,-0.296387,0.100098,0.739258,7,3,-5,-12,6,18,-72,-4,2535
-0.155701,-0.647595,-2.91927,57.1875,-107.188,52.9375,-0.296387,0.100098,0.739258,-2,-6,-6,7,4,5,40,2,2552
-0.147865,-0.659548,-2.8974,53.9375,-91.3125,41.5625,-0.496094,0.0488281,0.551758,-3,-4,12,-3,1,-6,2,-4,2569
-0.142499,-0.666625,-2.87769,51,-79.3125,32.8125,-0.679688,-0.0600586,0.388184,3,-11,-22,-11,-3,-5,-3,-7,2585
-0.142354,-0.666809,-2.86313,35,-56.9375,17.8125,-0.851074,-0.187988,0.167969,-1,0,-21,-11,-3,0,21,-9,2602
-0.167726,-0.597057,-2.88197,-26.9375,43.25,-47.375,-0.793457,-0.365723,0.146973,-7,-46,-10,48,4,-4,3,3,2674
-0.163668,-0.556469,-2.91396,-26.0625,76.1875,-73.375,-0.719238,-0.273438,0.26123,9,25,24,4,9,1,0,2,2692
-0.150287,-0.509534,-2.95811,-25.5,99.8125,-95.0625,-0.620605,-0.0830078,0.38916,-2,17,31,46,18,28,1,-2,2709
-0.134405,-0.468831,-3.00995,-27.375,122.125,-113.313,-0.409668,0.0913086,0.72998,7,14,114,-5,-8,-8,-9,4,2726
-0.119284,-0.419156,-3.06894,-41.625,145.938,-129.625,-0.220215,0.549805,1.60596,2,19,0,-15,-11,8,1,1,2743
-0.119284,-0.419156,-3.06894,-41.625,145.938,-129.625,-0.220215,0.549805,1.60596,-3,-29,-62,11,-2,-6,2,-5,2759
-0.117328,-0.377198,-3.12951,-61.4375,138.438,-144.813,0.212891,1.39795,2.56787,-15,-24,-115,-13,-4,0,-7,0,2777
-0.123208,-0.336962,3.0854,-85.5,136.313,-168.188,1.07764,1.19824,3.05762,-9,12,51,-34,-17,-18,-79,-5,2795
-0.141591,-0.29265,3.02361,-107.313,148.313,-150.313,1.771,1.74707,2.89941,15,37,4,-15,9,-6,32,0,2812
-0.171583,-0.250382,2.95679,-137.438,148.188,-163.5,1.70215,1.41064,2.35938,-1,-24,8,-20,-7,3,-2,0,2829
-0.208832,-0.206722,2.89132,-149.375,157.5,-156,1.26416,1.1748,1.99072,-13,-29,4,22,-7,2,-30,-1,2846
-0.231321,-0.172751,2.82941,-118.125,145.625,-141.813,1.00293,0.866699,1.59521,-3,1,-10,-6,-9,-13,12,0,2862
-0.247999,-0.14423,2.7719,-88,128.5,-134,0.774414,0.59668,1.10986,-2,11,16,1,2,1,-34,-8,2880
-0.262681,-0.121729,2.72002,-73.0625,109.313,-122.125,0.660156,0.501953,0.692871,7,19,10,8,2,-6,17,2,2897
-0.262681,-0.121729,2.72002,-73.0625,109.313,-122.125,0.660156,0.501953,0.692871,10,5,3,-6,-9,-3,1,-3,2914
-0.266923,-0.115821,2.67832,-59.8125,88.9375,-94.9375,0.660156,0.421875,0.368164,-6,-10,6,-7,-3,-1,-7,2,2932
-0.275852,-0.11669,2.62382,-26,46.0625,-53.75,0.518066,0.188965,-0.150879,-2,-3,2,-2,-1,-1,26,2,2984
-0.276383,-0.122456,2.60645,-12.6875,35.5625,-40.75,0.541504,0.177246,-0.341797,-2,-4,-6,-5,-1,-1,22,0,3001
-0.276383,-0.122456,2.60645,-12.6875,35.5625,-40.75,0.541504,0.177246,-0.341797,1,2,-4,-7,2,1,23,1,3018
-0.260272,-0.146025,2.59354,28.125,4.25,-5.375,0.569336,0.141602,-0.521973,3,-4,-2,-2,-3,1,8,-1,3035
-0.249979,-0.162166,2.59915,25.875,-0.5,17,0.662598,0.217773,-0.492188,-7,-13,-1,6,1,5,3,0,3052
-0.242687,-0.178457,2.61579,8,-8.5,50,0.679199,0.389648,-0.331055,-3,5,9,7,6,1,-10,-1,3068
-0.239707,-0.19886,2.64927,4.5625,-32.875,93.4375,0.674316,0.382324,-0.221191,4,11,0,3,11,8,-8,-5,3086
-0.248401,-0.211963,2.6966,-1.875,-56.9375,123.438,0.737793,0.217773,0.12207,-4,-13,13,-10,0,3,19,1,3102
-0.252866,-0.230995,2.7476,12.25,-76.875,129.188,0.889648,0.230469,0.724121,-8,11,29,-10,2,1,31,0,3119
-0.23151,-0.255384,2.79977,80.3125,-92.25,131.125,1.0332,0.704102,1.34521,-11,-23,-38,85,14,7,57,0,3136
-0.23151,-0.255384,2.79977,80.3125,-92.25,131.125,1.0332,0.704102,1.34521,4,0,-9,-55,-1,-10,12,-4,3153
-0.211668,-0.290624,2.86057,103.688,-135.438,141.5,0.917969,1.00391,2.12402,-6,6,12,12,-9,-5,33,-1,3170
-0.186732,-0.337681,2.9337,136.188,-171.688,168.688,0.82373,0.929688,2.51416,-38,-95,-7,-32,-20,-6,-94,3,3188
-0.172687,-0.391864,3.0079,116.125,-188.313,167.875,0.842773,0.956055,2.60303,-43,-20,-5,18,8,-28,-39,10,3205
-0.161917,-0.445488,3.07308,106.813,-179.813,142.75,0.943359,0.566406,2.29883,-33,23,-39,-15,9,-26,113,-2,3222
-0.149473,-0.490209,3.11924,80.8125,-149.688,103.25,0.791504,0.632324,2.00684,6,29,-29,-5,-4,-27,4,1,3239
-0.163036,-0.58242,-3.0644,17.0625,-100.625,66,-0.115234,0.389648,1.21338,-5,-1,-9,-6,3,5,-1,-3,3310
-0.158934,-0.594542,-3.03919,27,-97.4375,61.5,-0.27832,0.286133,0.958984,1,-1,0,2,-2,-24,37,-1,3327
-0.157661,-0.607245,-3.01066,35.5625,-96.1875,63,-0.421387,0.158203,0.654785,-6,-10,-2,1,-1,6,35,1,3344
-0.155819,-0.616602,-2.97839,55.25,-86.3125,64.8125,-0.560059,-0.00292969,0.418945,1,17,4,9,0,0,-4,0,3361
-0.157174,-0.624553,-2.94711,54.625,-76.8125,57.25,-0.661133,-0.132324,0.171387,-12,-7,6,-9,1,-5,32,-4,3378
-0.157174,-0.624553,-2.94711,54.625,-76.8125,57.25,-0.661133,-0.132324,0.171387,-1,-21,0,0,2,9,39,-1,3394
-0.16587,-0.62544,-2.92271,30.25,-52.75,38.375,-0.679688,-0.269043,0.106934,-1,1,1,6,8,3,11,-1,3410
-0.179643,-0.613465,-2.90911,-1.75,-17.6875,18.4375,-0.741699,-0.294922,0.137695,-8,-15,-3,2,-2,3,1,1,3427
-0.191375,-0.589816,-2.90839,-16.1875,12.6875,-7.75,-0.845703,-0.330078,0.164063,-3,-46,-28,-16,-6,-3,3,-1,3444
-0.196265,-0.55865,-2.92068,-14.6875,32.5,-35.6875,-0.902832,-0.378906,0.253906,14,33,4,7,9,-3,1,2,3461
-0.190828,-0.526727,-2.94683,-12.8125,48.125,-62.4375,-0.727051,-0.257813,0.332031,5,9,-38,9,-2,-5,-2,-1,3478
-0.190828,-0.526727,-2.94683,-12.8125,48.125,-62.4375,-0.727051,-0.257813,0.332031,-7,-31,42,-3,-12,-17,1,-1,3495
-0.17487,-0.491114,-2.9884,-20,74.1875,-87.875,-0.450195,0.0180664,0.55127,-2,59,66,-31,-5,4,0,-4,3513
-0.162695,-0.458411,-3.04031,-40.8125,102.438,-112.813,-0.223145,0.292969,1.13574,-1,-15,4,-17,-2,0,-3,-2,3529
-0.155867,-0.425102,-3.09952,-52.75,118.813,-136.25,-0.0136719,0.919922,2.11279,1,-30,-40,31,8,6,0,1,3546
-0.153282,-0.391753,3.1154,-70.625,121.813,-162.75,0.689941,1.22412,2.61182,-10,-16,51,-20,-3,9,14,-7,3563
-0.245734,-0.269164,2.91258,-161,167.938,-164,1.28223,0.978516,2.11377,7,25,-23,26,-1,-5,-10,4,3626
-0.281072,-0.226578,2.84517,-148.625,166.813,-148.938,1.08447,0.995605,1.78857,11,-4,2,10,-1,-2,-5,-11,3644
-0.305609,-0.192786,2.78539,-127.5,151.375,-124.688,0.889648,0.90625,1.43359,-2,-22,-12,-13,-4,4,-10,-4,3661
-0.305609,-0.192786,2.78539,-127.5,151.375,-124.688,0.889648,0.90625,1.43359,-7,3,3,4,0,8,-46,-5,3678
-0.324397,-0.167781,2.73671,-94.0625,120.563,-102.188,0.757324,0.625977,0.975098,-6,-3,7,5,2,3,13,0,3695
-0.32437,-0.160503,2.69364,-60.4375,95.25,-89.625,0.65625,0.421387,0.628418,-3,8,-2,8,3,6,32,2,3712
-0.323309,-0.156036,2.65866,-44,74.4375,-74.125,0.522949,0.381836,0.331055,-2,1,-5,8,5,-3,41,-1,3728
-0.32521,-0.154838,2.63239,-37.375,58,-55.6875,0.483887,0.308594,0.0375977,1,1,-10,5,5,-7,-2,5,3745
-0.331795,-0.154466,2.61111,-39,51.25,-44.0625,0.457031,0.229004,-0.161621,2,-1,-8,-6,2,-2,17,2,3762
-0.337541,-0.155326,2.59504,-30.5,40.5,-33.375,0.389648,0.200684,-0.259766,6,3,-8,-1,-3,2,-2,-3,3779
-0.337541,-0.155326,2.59504,-30.5,40.5,-33.375,0.389648,0.200684,-0.259766,3,-3,-3,-4,0,1,18,-4,3796
-0.338152,-0.16159,2.5861,-6.375,21.8125,-18.9375,0.416016,0.14502,-0.377441,-1,-5,-6,-8,-3,2,-16,-2,3813
-0.333608,-0.173038,2.58246,12.0625,9.6875,-7.875,0.501953,0.13916,-0.449219,0,3,3,3,-4,2,-2,-2,3830
-0.325185,-0.186404,2.58341,18.3125,3.4375,5.5625,0.558594,0.240234,-0.421387,-1,-2,8,5,-3,-2,3,-2,3848
-0.314809,-0.201084,2.59429,17.5625,-4.8125,34.125,0.637695,0.381836,-0.302246,-2,-5,-2,4,-3,-1,-4,-1,3865
-0.307955,-0.221034,2.6206,9.8125,-26.1875,74.6875,0.764648,0.442871,-0.167969,0,5,18,24,4,-7,5,-1,3882
-0.294371,-0.27851,2.75534,65.75,-96.625,130.813,0.855469,0.850098,1.61523,-1,17,77,-91,10,5,10,-1,3957
-0.273864,-0.325213,2.82368,116.938,-180.75,142.125,0.861328,0.775391,2.24268,-2,-20,-103,-15,-9,-4,2,-2,3974
-0.238011,-0.37914,2.8984,176.688,-200.438,155.438,0.982422,0.762695,2.56836,0,-21,55,3,-6,11,-128,-1,3992
-0.20872,-0.439424,2.96639,161.5,-208.375,136.438,1.06055,0.739258,2.50928,-32,-15,-1,0,3,-5,36,0,4009
-0.189317,-0.491039,3.02267,127.688,-173.625,111.875,1.12305,0.475098,2.1543,-4,34,-20,11,14,-19,3,0,4027
-0.181591,-0.530232,3.05989,58.6875,-132.313,78.9375,0.868652,0.689453,1.95801,25,9,-47,5,6,5,45,3,4043
-0.190245,-0.562276,3.09368,12.3125,-116.75,70,0.366699,0.56543,1.77734,6,1,-6,19,-5,2,-19,0,4060
-0.190245,-0.562276,3.09368,12.3125,-116.75,70,0.366699,0.56543,1.77734,-6,-18,1,-9,4,15,-38,-5,4077
-0.196093,-0.591532,3.1269,25.3125,-112.125,66.125,0.0078125,0.40625,1.51563,-13,-14,-8,-5,-14,-9,61,0,4094
-0.195259,-0.620347,-3.12403,46.875,-111.75,61.0625,-0.250977,0.35498,1.22559,-7,3,-2,-6,0,-7,-18,-2,4110
-0.192311,-0.649171,-3.09224,56.875,-109.563,57.5,-0.342773,0.251465,0.914063,9,16,5,1,4,4,-23,-5,4127
-0.18454,-0.662724,-3.06345,60.8125,-97.9375,56.9375,-0.374023,0.106445,0.643555,1,8,7,11,0,-10,-11,0,4145
-0.18454,-0.662724,-3.06345,60.8125,-97.9375,56.9375,-0.374023,0.106445,0.643555,-3,-39,-7,-4,0,6,8,-1,4160
-0.182797,-0.674351,-3.03479,53.6875,-85.25,51.3125,-0.436523,-0.0288086,0.417969,4,32,9,2,8,7,8,-6,4178
-0.189501,-0.680892,-3.00682,37.5,-72.375,44.5625,-0.57959,-0.165527,0.28125,-1,-9,1,0,-2,7,3,-5,4195
-0.202929,-0.680281,-2.98203,22.875,-53,32.1875,-0.699219,-0.352051,0.178711,3,-5,-4,-5,-10,-11,-6,-1,4212
-0.225441,-0.588764,-3.00908,-31.5,54.6875,-52,-0.59082,-0.147461,0.361328,1,-42,3,-2,2,10,-3,-4,4280
-0.218644,-0.550299,-3.04829,-50.8125,86.8125,-70.875,-0.356445,0.0263672,0.586426,-7,2,14,2,-5,-4,-5,-1,4297
-0.218644,-0.550299,-3.04829,-50.8125,86.8125,-70.875,-0.356445,0.0263672,0.586426,-4,1,35,-92,-10,1,-1,0,4314
-0.211157,-0.509444,-3.09898,-59.9375,128.375,-95.75,-0.20166,0.287109,1.15479,-9,0,19,-89,4,32,10,2,4330
-0.204061,-0.468371,3.12686,-56.875,145.25,-117.563,-0.114258,0.946289,2.08105,-7,-3,-51,44,5,2,0,2,4347
-0.205301,-0.427606,3.06547,-79.9375,146.563,-131.75,0.578125,1.37598,2.67285,-3,17,48,-15,1,-9,26,-2,4364
-0.23351,-0.383402,3.01557,-137.063,152.375,-100.563,1.4292,1.45996,2.74316,-7,2,-19,10,2,-14,9,-2,4382
-0.23351,-0.383402,3.01557,-137.063,152.375,-100.563,1.4292,1.45996,2.74316,4,2,-10,4,-4,5,-33,0,4399
-0.285879,-0.293303,2.89761,-119.063,176.375,-123.438,1.26904,1.05664,2.18408,6,-1,-13,16,2,2,-68,0,4417
-0.285879,-0.293303,2.89761,-119.063,176.375,-123.438,1.26904,1.05664,2.18408,0,-4,-17,10,2,1,1,2,4435
-0.312558,-0.245897,2.84281,-118.125,174.188,-104.75,1.146,1.10791,1.80127,-4,-16,-3,11,-1,-1,-1,-4,4452
-0.333964,-0.207184,2.79328,-112,160,-87.8125,0.943359,0.727539,1.33398,-6,-1,0,-7,-1,2,-81,-8,4470
-0.349292,-0.175398,2.74907,-79.8125,137,-80.875,0.751953,0.416992,0.919922,-9,-2,-2,3,-9,-2,-30,1,4487
-0.358177,-0.152651,2.70894,-51.875,108.813,-79.125,0.624512,0.276367,0.588379,-5,5,1,-4,-2,3,75,3,4504
-0.360457,-0.147014,2.67595,-45.125,82.9375,-65,0.585938,0.275879,0.300781,-1,2,-7,6,0,-10,32,1,4521
-0.366742,-0.147101,2.65372,-42,61.0625,-41.9375,0.609863,0.233398,0.0224609,4,-5,-12,3,2,-6,-3,2,4538
-0.381367,-0.169584,2.61855,-2.5,20.5,-16.25,0.572754,0.135742,-0.434082,1,-2,0,-3,-2,-2,-37,-2,4598
-0.381367,-0.169584,2.61855,-2.5,20.5,-16.25,0.572754,0.135742,-0.434082,-2,-9,2,-1,-1,-1,-20,-3,4616
-0.377079,-0.183744,2.61699,8.9375,8.3125,-1.125,0.625977,0.206055,-0.421387,1,-2,-5,-7,-7,1,-13,0,4632
-0.37012,-0.200056,2.62467,12.5,-6.6875,23.125,0.644043,0.317383,-0.338379,-5,-13,-9,-6,-6,0,2,-1,4649
-0.363076,-0.221094,2.64636,15.6875,-34.8125,55.625,0.64502,0.35791,-0.229492,-5,3,4,14,-1,-5,13,-3,4666
-0.361742,-0.247089,2.68228,13.875,-60.375,87.625,0.688965,0.251953,-0.125,-2,2,-3,-13,-6,1,-14,-4,4684
-0.372824,-0.259112,2.7278,-5,-67.8125,110.75,0.717773,0.239746,0.321289,-5,-22,-14,-9,-7,-2,-1,-4,4701
-0.372824,-0.259112,2.7278,-5,-67.8125,110.75,0.717773,0.239746,0.321289,1,-36,62,-47,1,7,19,-2,4719
-0.372347,-0.277207,2.77819,23.9375,-91.6875,118.5,0.859375,0.524902,1.19189,0,6,2,56,3,-3,3,-3,4736
-0.365348,-0.307541,2.84443,74.5,-146.625,138.188,0.934082,0.862793,1.83447,6,22,-26,1,6,5,-3,-2,4753
-0.336476,-0.352115,2.9186,151.688,-189.25,145.25,0.879395,0.620117,2.35938,21,-2,10,-26,-22,9,-66,-6,4770
-0.302894,-0.401615,2.99704,178.875,-200.375,153.938,0.94043,0.964844,2.60156,0,6,29,6,1,6,-122,-5,4787
-0.278021,-0.457464,3.07127,160,-208.875,139.313,0.916992,0.662109,2.5083,-26,-10,0,57,9,-8,-11,1,4804
-0.25782,-0.506948,3.13067,137,-176.688,108,0.947754,0.506348,2.11816,4,41,-44,42,14,-13,-5,5,4821
-0.25782,-0.506948,3.13067,137,-176.688,108,0.947754,0.506348,2.11816,20,11,-20,-36,-7,3,54,2,4838
-0.246494,-0.544964,-3.1098,77,-140.563,83.1875,0.666504,0.654785,1.95752,5,-6,-9,-36,-26,-13,-30,-5,4855
-0.26017,-0.629389,-3.00308,35.625,-101.938,59,-0.214844,0.298828,1.06641,1,21,-10,-4,1,3,20,1,4916
-0.254496,-0.638173,-2.97802,38,-88.1875,52.375,-0.306152,0.189941,0.779785,6,-25,-3,-7,6,1,5,0,4934
-0.251663,-0.643222,-2.95369,38.1875,-72.4375,47.6875,-0.383789,0.0712891,0.574707,7,-52,-4,-3,6,17,-28,-4,4951
-0.252628,-0.646183,-2.93026,35.5625,-63.25,40.4375,-0.501953,-0.0478516,0.367188,-3,-10,-4,-12,-5,-15,10,0,4968
-0.259338,-0.646318,-2.91102,21.3125,-49.875,26.9375,-0.562988,-0.188965,0.208984,-1,-5,-1,-5,-6,-10,5,-2,4985
-0.272455,-0.641662,-2.89844,0,-32.375,8.5625,-0.635254,-0.327637,0.102539,-5,-19,3,-3,15,31,0,6,5001
-0.272455,-0.641662,-2.89844,0,-32.375,8.5625,-0.635254,-0.327637,0.102539,-10,1,-5,-11,-13,-5,-29,-11,5019
-0.288974,-0.62785,-2.89774,-23.875,-2.5,-15.9375,-0.685059,-0.446777,0.0844727,23,-2,11,13,45,20,102,35,5035
-0.302338,-0.606741,-2.91247,-43.125,19.375,-44.8125,-0.812988,-0.411621,0.11377,70,25,-7,-12,-10,-2,49,-3,5052
-0.312885,-0.580249,-2.94222,-62.0625,38.0625,-73.4375,-0.917969,-0.354492,0.144043,87,28,19,-4,-9,16,73,16,5069
-0.318507,-0.566953,-2.98932,-86.5,56.4375,-102.813,-0.846191,-0.35498,0.337891,81,6,-40,27,-52,-11,-4,0,5086
-0.330106,-0.544195,-3.04449,-120.063,89.25,-109.438,-0.664551,-0.00292969,0.679688,70,66,0,109,-7,38,43,13,5103
-0.330106,-0.544195,-3.04449,-120.063,89.25,-109.438,-0.664551,-0.00292969,0.679688,98,67,52,-22,-6,-11,-10,49,5120
-0.310084,-0.514309,-3.11077,-52.25,119.063,-125.063,-0.0512695,0.42334,1.57568,-29,20,41,-85,-52,37,7,-4,5137
-0.291931,-0.469639,3.09545,-52.125,179.625,-147.75,0.715332,1.03271,2.70654,-70,-10,-30,-56,45,-69,-80,-36,5154
-0.297993,-0.425198,3.02096,-109.875,177.938,-147.188,0.705078,2.07227,3.07471,-11,-85,53,50,79,91,12,-103,5171
-0.369365,-0.274836,2.81058,-102.563,202.438,-119.25,0.965332,1.01123,1.91748,21,-102,-61,-51,-68,-26,-44,-82,5235
-0.388989,-0.229496,2.75099,-119.625,187.063,-97.875,0.71582,0.682129,1.63281,74,30,-2,29,70,-21,34,127,5252
-0.388989,-0.229496,2.75099,-119.625,187.063,-97.875,0.71582,0.682129,1.63281,-78,24,-22,-45,-104,-97,-69,-51,5269
-0.400375,-0.190657,2.70009,-79.1875,163.313,-82.875,0.617188,0.476563,1.3291,-65,7,43,46,-33,-64,103,-4,5285
-0.406763,-0.163789,2.65539,-53.25,128.938,-79.6875,0.708008,0.431641,0.874512,-49,-12,-2,-45,-15,-9,-38,-12,5303
-0.407482,-0.155053,2.61808,-60.875,99.625,-64.625,0.628418,0.461914,0.491211,-48,-114,-78,-37,-14,2,74,-42,5320
-0.416915,-0.151783,2.58965,-59.6875,74.8125,-52.0625,0.567383,0.24707,0.192871,49,-4,-7,-20,-2,-23,-63,60,5337
-0.42512,-0.150005,2.57184,-41.625,59.4375,-26.75,0.547852,0.190918,-0.0356445,-12,-64,-11,81,118,23,-59,-40,5353
-0.42771,-0.15812,2.56243,-21.1875,27.1875,-15.0625,0.54541,0.321777,-0.35791,-60,53,22,34,97,30,17,81,5371
-0.432889,-0.175227,2.56143,-20.4375,4.0625,-0.4375,0.695801,0.276855,-0.416504,127,91,33,-37,2,19,-35,20,5388
-0.43841,-0.199207,2.56786,-14.0625,-13.625,13.9375,0.833984,0.226563,-0.425293,90,127,32,-43,-114,2,41,27,5405
-0.437063,-0.222593,2.58234,5.0625,-27.6875,33.5625,0.73877,0.295898,-0.380371,118,87,24,-15,-2,-10,3,121,5422
-0.426124,-0.256326,2.60786,35.4375,-65.0625,51.625,0.789551,0.334961,-0.29541,8,-44,34,90,48,-7,57,13,5439
-0.420991,-0.290346,2.64073,20.5,-69.875,74.25,0.869141,0.415527,-0.233887,-75,-75,-21,17,-48,-34,45,18,5457
-0.420034,-0.320042,2.67947,18.75,-84.125,84.25,0.67627,0.201172,0.166992,54,4,-23,-37,-13,3,-50,-25,5474
-0.420034,-0.320042,2.67947,18.75,-84.125,84.25,0.67627,0.201172,0.166992,28,-6,-38,-91,-77,18,81,99,5492
-0.349341,-0.477356,2.98351,184.125,-226.875,176.938,1.20313,0.891113,2.60352,-51,-107,-64,-64,-12,10,-30,53,5565
-0.337161,-0.52466,3.07587,162.25,-206.188,173.188,1.15088,0.830078,2.64746,-49,4,16,9,23,-15,27,17,5582
-0.337161,-0.52466,3.07587,162.25,-206.188,173.188,1.15088,0.830078,2.64746,5,67,-22,46,-24,0,127,-27,5600
-0.33932,-0.568462,-3.12822,111.625,-182.5,141,0.975098,0.618164,2.47998,10,-41,-28,8,6,41,-59,-82,5617
-0.349083,-0.606251,-3.06787,67.875,-150.5,98.9375,0.820313,0.591797,2.08984,19,48,-5,-27,-10,42,6,34,5635
-0.357428,-0.633378,-3.0222,35.875,-123.25,80.5625,0.392578,0.566406,1.76123,-7,46,21,-10,-33,33,-10,49,5652
-0.370718,-0.653739,-2.97673,26.9375,-107.063,81.1875,0.00537109,0.464355,1.47656,97,34,8,5,-57,14,112,48,5669
-0.386948,-0.672717,-2.92557,33.5625,-109.875,89.1875,-0.282227,0.365723,1.18604,-19,10,39,127,53,-30,-87,-15,5687
-0.386948,-0.672717,-2.92557,33.5625,-109.875,89.1875,-0.282227,0.365723,1.18604,43,-29,-31,63,-3,-20,1,102,5705
-0.40623,-0.696612,-2.82596,57.75,-98.4375,86.125,-0.316406,0.0957031,0.663574,-11,-17,-10,-39,-13,6,-8,-42,5722
-0.40623,-0.696612,-2.82596,57.75,-98.4375,86.125,-0.316406,0.0957031,0.663574,-22,-27,-18,9,40,21,-26,-58,5739
-0.409464,-0.695104,-2.78736,53.125,-65,71.9375,-0.284668,-0.0263672,0.490234,-31,5,3,8,-16,-16,48,-82,5755
-0.412194,-0.681914,-2.75926,41.9375,-30.125,56.125,-0.478516,-0.129883,0.382324,61,17,27,27,-19,2,-21,-2,5772
-0.416323,-0.65991,-2.74494,22.125,0.5,27.875,-0.66748,-0.288086,0.269531,64,58,25,32,3,-6,64,60,5789
-0.418651,-0.629028,-2.74786,2.375,30.375,-5.4375,-0.882813,-0.37793,0.214355,-71,35,16,-19,-47,-8,48,0,5806
-0.418651,-0.629028,-2.74786,2.375,30.375,-5.4375,-0.882813,-0.37793,0.214355,-12,-22,-13,-47,-2,23,-13,75,5823
-0.38561,-0.519267,-2.92409,-59.8125,100.125,-127.875,-0.647461,-0.00146484,0.567871,50,36,54,-24,41,25,-42,-14,5896
-0.365687,-0.498339,-2.99923,-59.6875,108.75,-152.25,-0.435547,0.328613,1.21484,1,-34,65,74,-9,-3,63,9,5913
-0.347844,-0.4815,-3.07567,-51.875,112.875,-164.188,-0.106445,1.08008,2.09717,13,-29,-42,-79,-16,18,5,39,5930
-0.339419,-0.453815,3.12182,-86.625,148.25,-180.063,0.799316,1.30029,2.64648,-42,-55,-126,-20,-29,0,12,-4,5947
-0.352052,-0.417435,3.03301,-143.688,176.563,-181.875,1.32861,1.6377,3.0249,5,-14,-43,-10,5,-7,-66,-8,5964
-0.352052,-0.417435,3.03301,-143.688,176.563,-181.875,1.32861,1.6377,3.0249,-43,-17,-49,-38,-28,-2,23,-5,5982
-0.376492,-0.374773,2.94798,-164.063,194.063,-166.625,1.35449,1.48633,2.72607,-14,0,-28,57,2,-34,53,51,6000
-0.400131,-0.328081,2.86599,-148.688,207.688,-153.813,1.2124,1.21875,2.31836,7,7,-3,42,5,4,-65,35,6017
-0.419167,-0.280055,2.79062,-119.375,208.313,-134.313,1.01953,1.0791,1.92822,-12,-31,-8,7,94,23,-4,-45,6035
-0.431801,-0.23682,2.72296,-108.625,198.375,-109.563,0.880371,0.837891,1.47949,6,35,23,-2,-16,5,54,38,6053
-0.431801,-0.23682,2.72296,-108.625,198.375,-109.563,0.880371,0.837891,1.47949,18,-7,9,74,-8,12,-6,3,6070
-0.4455,-0.195422,2.6627,-90.6875,187.75,-94.75,0.770508,0.494629,0.980469,-8,-69,-8,-2,-38,-7,16,-19,6087
-0.458678,-0.158975,2.612,-72.75,163.688,-77.5,0.571777,0.357422,0.57959,-2,17,-7,-35,-54,-5,-43,84,6104
-0.458678,-0.158975,2.612,-72.75,163.688,-77.5,0.571777,0.357422,0.57959,-10,10,4,30,39,9,38,16,6121
-0.474247,-0.119593,2.54674,-35,94.6875,-36.3125,0.561523,0.25,0.0463867,-15,6,6,25,18,-3,-8,-33,6138
-0.475612,-0.119804,2.53198,-16.875,59.875,-15.8125,0.654297,0.241211,-0.202637,-3,13,7,10,10,-2,-17,-22,6155
-0.484539,-0.195443,2.57857,2.9375,-57.0625,52.375,0.767578,0.276855,-0.193359,7,-13,-23,-27,-4,4,21,-5,6228
-0.484539,-0.195443,2.57857,2.9375,-57.0625,52.375,0.767578,0.276855,-0.193359,45,33,33,32,23,-7,-18,-13,6245
-0.481573,-0.252951,2.66106,26.75,-105.25,87.25,0.894531,0.259766,-0.0117188,48,-24,3,-32,4,6,-24,5,6262
-0.481573,-0.252951,2.66106,26.75,-105.25,87.25,0.894531,0.259766,-0.0117188,26,26,14,9,-8,-4,-17,30,6279
-0.481362,-0.279677,2.71039,29.5625,-119.25,94,0.941406,0.322754,0.387207,4,-36,-16,-1,28,11,0,8,6296
-0.475226,-0.308973,2.76712,46.875,-140.813,108.5,0.817871,0.619141,1.14307,90,8,4,5,9,8,41,23,6314
-0.469043,-0.349023,2.84679,91.4375,-200.25,140.313,0.821289,0.807129,1.89795,31,-41,-42,11,-25,34,-97,-25,6331
-0.469043,-0.349023,2.84679,91.4375,-200.25,140.313,0.821289,0.807129,1.89795,-87,-8,39,-68,-74,3,-100,-72,6348
-0.469043,-0.349023,2.84679,91.4375,-200.25,140.313,0.821289,0.807129,1.89795,-52,40,3,-6,37,-71,127,-54,6365
-0.442099,-0.509873,-3.13709,136.75,-246.438,165.375,1.06836,0.686035,2.59814,35,25,-33,5,17,-23,64,30,6383
-0.442099,-0.509873,-3.13709,136.75,-246.438,165.375,1.06836,0.686035,2.59814,-9,2,55,-5,-27,-9,82,77,6400
-0.451888,-0.556736,-3.05331,94.0625,-210.25,128.625,0.848633,0.646973,2.55713,36,-29,-12,21,8,48,15,33,6417
-0.462472,-0.597889,-2.98185,81.375,-181.688,101.938,0.458496,0.70459,2.21289,-67,-4,-34,8,-25,20,30,-18,6435
-0.476873,-0.631965,-2.91648,66.875,-156.188,92.125,0.11084,0.608398,1.84277,7,42,19,74,38,-14,-68,-21,6452
-0.483942,-0.655983,-2.86335,56.1875,-134.313,80.125,-0.0922852,0.462402,1.47607,24,-3,-12,3,-2,10,-2,9,6469
-0.496564,-0.676179,-2.81494,38.9375,-118.313,70,-0.287109,0.283203,1.15088,22,-19,-51,14,30,-18,-10,16,6485
-0.509239,-0.680881,-2.72138,30.1875,-37.4375,22.3125,-0.588379,-0.150391,0.338867,-6,-1,0,-10,0,-1,-31,6,6547
-0.509239,-0.680881,-2.72138,30.1875,-37.4375,22.3125,-0.588379,-0.150391,0.338867,-6,3,4,0,-1,-8,-46,-45,6565
-0.50962,-0.661775,-2.71925,5.5625,0.9375,3.5,-0.714844,-0.197266,0.256348,30,21,-8,-8,19,-2,-23,9,6582
-0.511008,-0.633542,-2.72838,-10.3125,33.5625,-13.8125,-0.847656,-0.301758,0.162109,6,-8,7,8,3,-9,-22,6,6599
-0.507696,-0.598846,-2.75149,-16,64.375,-36,-0.898926,-0.332031,0.112305,-25,-27,-15,-33,-7,3,17,12,6617
-0.498449,-0.559694,-2.7908,-28.5,91.5625,-62.5,-0.849609,-0.285645,0.22998,12,2,10,11,-2,0,25,7,6635
-0.485758,-0.535039,-2.84318,-42.4375,109.5,-86.5625,-0.740723,-0.207031,0.440918,-2,-5,21,14,-3,-10,-4,-11,6652
-0.47081,-0.509034,-2.90601,-49.8125,125,-108.563,-0.54248,-0.125977,0.65625,52,32,3,22,-26,-3,-10,-3,6670
-0.47081,-0.509034,-2.90601,-49.8125,125,-108.563,-0.54248,-0.125977,0.65625,49,17,42,-47,15,10,39,-7,6687
-0.43558,-0.452214,-3.06232,-55.875,158.125,-153.875,-0.125977,0.640625,2.00293,14,0,-4,74,3,-3,-25,-1,6704
-0.43558,-0.452214,-3.06232,-55.875,158.125,-153.875,-0.125977,0.640625,2.00293,-24,18,67,-25,2,-4,-14,2,6721
-0.427482,-0.426797,3.13647,-79.8125,157.438,-168.5,0.438965,1.11182,2.60156,0,-50,-8,-42,-8,-11,-20,6,6737
-0.43746,-0.399862,3.04807,-130.563,167.188,-178.188,0.967285,1.27832,2.71826,-9,-45,-63,-29,-4,-11,14,17,6755
-0.455227,-0.371534,2.95826,-148,176.25,-180.375,0.907715,1.33154,2.71338,-77,-97,-8,14,-12,-8,-85,-47,6773
-0.455227,-0.371534,2.95826,-148,176.25,-180.375,0.907715,1.33154,2.71338,-6,92,36,-4,-23,31,-5,16,6790
-0.481787,-0.341563,2.87686,-157.5,175.375,-156.375,0.899414,1.21729,2.30908,-6,92,36,-4,-23,31,-5,16,6807
-0.54703,-0.224208,2.57372,-53.375,103.125,-64.875,0.59082,0.432617,0.31543,-48,-33,-21,-5,-35,5,-2,-14,6884
-0.54703,-0.224208,2.57372,-53.375,103.125,-64.875,0.59082,0.432617,0.31543,40,17,-7,-34,15,5,-19,36,6901
-0.547544,-0.223795,2.54591,-32.8125,74.75,-41.6875,0.586914,0.227539,0.0249023,8,14,10,-9,-6,-1,-50,-12,6918
-0.547669,-0.230803,2.52874,-16.0625,47.5625,-26.0625,0.645508,0.192383,-0.17041,-17,10,-6,-11,-12,9,33,23,6935
-0.548631,-0.243262,2.52149,-6.3125,23.8125,-9.75,0.689941,0.152344,-0.276367,-54,3,9,11,-45,9,36,10,6952
-0.549322,-0.258708,2.52494,0.8125,5.625,14.6875,0.755859,0.189941,-0.332031,28,1,-1,-22,-12,4,9,6,6969
-0.549322,-0.258708,2.52494,0.8125,5.625,14.6875,0.755859,0.189941,-0.332031,35,18,13,31,-14,-10,-85,-37,6986
-0.546451,-0.303987,2.55493,22,-28.875,39.75,0.870605,0.255371,-0.326172,-38,33,16,-17,-1,14,41,-1,7003
-0.546451,-0.303987,2.55493,22,-28.875,39.75,0.870605,0.255371,-0.326172,40,4,0,0,-14,-10,-18,9,7020
-0.539951,-0.331453,2.58272,29.25,-51.4375,62.625,0.915039,0.356934,-0.195313,30,23,-9,-36,-19,8,-89,-18,7037
-0.536003,-0.360952,2.62355,32.5,-76.4375,90.625,0.938477,0.336914,-0.0473633,-3,-4,-15,-24,-42,3,16,29,7055
-0.53769,-0.375235,2.67468,38.1875,-95.6875,106.125,0.887207,0.407715,0.435059,2,25,28,31,23,-2,3,-8,7072
-0.536752,-0.394061,2.73685,49.5625,-128,125.563,0.871582,0.677734,1.23926,-65,-26,-61,-26,17,-6,-33,-26,7089
-0.536752,-0.394061,2.73685,49.5625,-128,125.563,0.871582,0.677734,1.23926,19,-3,35,-68,14,2,-31,-2,7106
-0.53928,-0.419195,2.8222,89.75,-176.938,156.125,0.88623,0.937988,2.13867,20,-28,-64,19,-20,-20,6,3,7123
-0.53347,-0.458798,2.9263,143.313,-235.438,174.188,0.811523,0.818359,2.55225,44,-50,-80,-3,9,-7,58,16,7141
-0.537119,-0.579098,-3.06519,73.1875,-177.5,119.313,0.870117,0.703125,2.39453,63,51,-33,29,45,-5,59,4,7208
-0.552688,-0.606321,-3.00177,56.875,-144.875,88.875,0.414551,0.580078,2.07764,64,24,-8,21,-37,4,18,-5,7226
-0.566619,-0.641789,-2.89799,57.375,-107.875,75.4375,-0.291016,0.473633,1.26904,-16,-1,9,-27,-10,2,-14,-2,7242
-0.566619,-0.641789,-2.89799,57.375,-107.875,75.4375,-0.291016,0.473633,1.26904,-5,-7,0,11,1,2,12,2,7260
-0.551666,-0.639976,-2.86453,58.5,-89.5,71.875,-0.26123,0.307129,0.964355,10,7,1,3,-2,-1,2,9,7278
-0.541478,-0.63398,-2.83315,55,-72.5625,64.1875,-0.407227,0.148438,0.729492,7,4,1,1,-19,-3,22,-3,7295
-0.531086,-0.623116,-2.80577,61.1875,-51.5625,55.75,-0.536133,0.0234375,0.505371,-11,2,5,7,7,11,28,-18,7312
-0.520751,-0.608886,-2.78704,56.3125,-25.75,38.5625,-0.591797,-0.0625,0.257813,6,-6,-6,-17,-15,10,32,7,7329
-0.520751,-0.608886,-2.78704,56.3125,-25.75,38.5625,-0.591797,-0.0625,0.257813,21,5,4,1,-4,-3,10,0,7346
-0.521976,-0.557425,-2.77795,-0.875,25.4375,7.375,-0.876465,-0.289063,0.0766602,-11,-22,-9,-2,0,-7,-11,5,7364
-0.521976,-0.557425,-2.77795,-0.875,25.4375,7.375,-0.876465,-0.289063,0.0766602,3,11,9,3,-12,1,21,4,7381
-0.527887,-0.523854,-2.78603,-11.8125,39.625,-12,-0.993652,-0.391602,0.0800781,4,5,4,-4,-3,1,16,22,7398
-0.527024,-0.491827,-2.81008,-15.5625,53.625,-48.5,-0.984375,-0.391113,0.136719,-59,17,30,8,21,3,-2,-41,7415
-0.516037,-0.463693,-2.85201,-19.4375,67.75,-86.75,-0.824219,-0.307617,0.349121,-4,29,16,13,0,11,3,4,7432
-0.499407,-0.452283,-2.90753,-26.0625,85.4375,-113.688,-0.619629,-0.0668945,0.556152,-37,45,57,-6,-28,-10,-7,-7,7449
-0.499407,-0.452283,-2.90753,-26.0625,85.4375,-113.688,-0.619629,-0.0668945,0.556152,11,6,35,36,48,-6,45,-16,7466
-0.464818,-0.385702,3.05319,-73,156.625,-197.625,0.54248,1.37744,2.76367,-6,61,-49,-43,-24,-7,-54,3,7532
-0.464818,-0.385702,3.05319,-73,156.625,-197.625,0.54248,1.37744,2.76367,27,9,-13,6,13,-21,60,7,7549
-0.498132,-0.339075,2.88376,-152.063,164.063,-158.438,0.729004,1.47607,2.5918,67,-92,13,-26,-25,68,-110,-27,7565
-0.498132,-0.339075,2.88376,-152.063,164.063,-158.438,0.729004,1.47607,2.5918,-103,29,12,28,30,-71,107,4,7582
-0.524476,-0.314693,2.81521,-138.625,151.938,-128,0.821289,1.1582,2.05615,-105,-20,-28,98,88,-64,127,8,7599
-0.544145,-0.289197,2.7543,-108.313,147.688,-106.313,0.740723,0.890137,1.5415,20,12,-34,11,24,-13,22,-39,7616
-0.553788,-0.268502,2.69954,-86.75,134.25,-89.5625,0.634277,0.549805,0.992676,-60,-26,2,-12,10,4,-16,5,7632
-0.563073,-0.247634,2.65572,-71.625,119.75,-64.3125,0.528809,0.497559,0.657715,19,18,20,31,8,8,4,-25,7649
-0.563073,-0.247634,2.65572,-71.625,119.75,-64.3125,0.528809,0.497559,0.657715,-3,2,-12,-18,-39,10,-53,1,7667
-0.563979,-0.241623,2.62232,-60.625,91.9375,-41.5,0.585449,0.387695,0.376465,-52,-39,-19,5,31,-8,5,4,7684
-0.568877,-0.242406,2.60036,-49.75,63.4375,-25.8125,0.605957,0.311035,0.10498,-29,7,1,-12,-9,6,-21,-15,7702
-0.573886,-0.248834,2.58745,-31.3125,42.5625,-13.1875,0.653809,0.220215,-0.116699,-22,-6,-1,1,-14,-4,-12,-16,7720
-0.576358,-0.262187,2.58494,-13,18.125,4.75,0.749512,0.250977,-0.272949,21,4,1,-21,-30,-7,-10,21,7737
-0.580554,-0.279785,2.59217,-5.9375,-0.4375,23.375,0.835449,0.218262,-0.349609,21,-20,-1,-8,-10,5,-40,-1,7754
-0.58705,-0.298403,2.60687,-2.75,-13.125,38.375,0.843262,0.177246,-0.38623,10,3,10,26,-6,-3,30,-28,7771
-0.58705,-0.298403,2.60687,-2.75,-13.125,38.375,0.843262,0.177246,-0.38623,73,3,-1,9,16,-20,-17,6,7789
-0.599145,-0.36998,2.70091,20.875,-77.4375,89.625,0.922363,0.250977,-0.0712891,-57,-25,20,-3,-35,6,-6,1,7864
-0.613338,-0.397348,2.8171,39,-136.125,120.688,0.741211,0.594727,1.125,-44,-9,18,-25,-17,14,-45,0,7881
-0.622195,-0.421133,2.90409,74,-188.063,147,0.829102,0.783203,1.8252,93,15,9,-37,-36,4,-65,45,7898
-0.627793,-0.450316,3.00055,100.375,-214.875,154.563,0.77832,0.760742,2.23779,-5,-124,19,-40,-20,4,-125,-63,7914
-0.630271,-0.483678,3.10918,133.313,-240.938,168.375,0.635254,0.946289,2.80566,-33,37,-97,-8,32,-32,113,20,7931
-0.63548,-0.520474,-3.05583,147.938,-260.688,177.438,0.836426,0.859375,2.75488,58,49,-12,-33,5,-10,101,34,7947
-0.63548,-0.520474,-3.05583,147.938,-260.688,177.438,0.836426,0.859375,2.75488,-66,6,-50,4,7,14,110,19,7964
-0.649565,-0.551792,-2.95105,113.375,-226.813,152.938,0.967773,0.762207,2.62109,-56,-34,21,70,3,13,-85,-46,7982
-0.659126,-0.582526,-2.86827,100,-191.438,105.25,0.681641,0.612793,2.31006,54,29,37,21,34,36,-60,23,7999
-0.667334,-0.607158,-2.80212,82.6875,-152.563,80.5,0.395508,0.624512,1.83936,-11,-29,-26,-35,-19,6,6,11,8017
-0.672941,-0.621966,-2.75083,51.625,-121.688,71.625,0.00976563,0.468262,1.35547,3,31,37,35,54,-5,-9,17,8035
-0.661972,-0.620234,-2.71835,39,-99.5625,60.4375,-0.340332,0.266113,1.02295,19,9,-10,-9,25,3,36,15,8052
-0.651311,-0.617823,-2.68965,50.8125,-87.4375,42,-0.539551,0.0996094,0.691406,71,-26,-20,11,-11,-10,10,6,8069
-0.651311,-0.617823,-2.68965,50.8125,-87.4375,42,-0.539551,0.0996094,0.691406,46,30,5,-18,-8,7,-20,12,8085
-0.639748,-0.613505,-2.66822,51.3125,-65.8125,28.375,-0.562012,0.0112305,0.509277,-50,24,-1,-3,0,-6,-9,-26,8103
-0.633527,-0.602178,-2.65119,38.375,-40.6875,26.3125,-0.645996,-0.0883789,0.353516,12,-4,-6,13,16,-2,-39,1,8120
-0.644765,-0.50208,-2.69044,-34.6875,60.75,-64,-0.96582,-0.368652,0.208008,57,121,20,-7,-5,4,11,30,8192
-0.644765,-0.50208,-2.69044,-34.6875,60.75,-64,-0.96582,-0.368652,0.208008,30,-20,6,-18,9,0,7,17,8209
-0.634713,-0.463624,-2.7915,-65.25,93.1875,-106.25,-0.927246,-0.101563,0.534668,15,29,21,2,18,15,29,11,8227
-0.634713,-0.463624,-2.7915,-65.25,93.1875,-106.25,-0.927246,-0.101563,0.534668,-10,3,-16,-11,-1,-11,-6,-15,8244
-0.627148,-0.45049,-2.86982,-89.3125,134.063,-144.125,-0.602539,0.179688,1.02881,8,11,1,14,-17,-1,-17,-11,8261
-0.615211,-0.43396,-2.97455,-94.4375,196.25,-193.25,-0.192383,0.852539,2.03271,26,-33,-21,-38,-1,2,3,-71,8278
-0.60592,-0.411385,-3.1003,-121.375,241.5,-232.438,0.0219727,1.75098,2.99072,-37,-51,-14,-43,-9,-1,-9,2,8295
-0.60592,-0.411385,-3.1003,-121.375,241.5,-232.438,0.0219727,1.75098,2.99072,-37,-51,-14,-43,-9,-1,-9,2,8312
-0.60592,-0.411385,-3.1003,-121.375,241.5,-232.438,0.0219727,1.75098,2.99072,13,46,24,9,4,-1,-10,7,8329
-0.640956,-0.350273,2.93731,-189.563,256.188,-203.438,1.14258,1.64697,3.13428,20,-47,-20,5,-14,3,30,11,8346
-0.665381,-0.31295,2.83473,-165.813,253.813,-156.188,1.04639,1.24121,2.46045,-7,1,-2,3,29,5,43,9,8364
-0.681084,-0.277241,2.74455,-120.313,234.313,-129.563,0.906738,0.908691,1.84863,-1,18,-6,0,0,-2,65,13,8381
-0.691245,-0.243672,2.66846,-85.1875,207.938,-102.25,0.676758,0.779297,1.52197,16,6,7,-28,-29,5,-81,8,8399
-0.692277,-0.223613,2.61344,-57.625,147.938,-71.375,0.72998,0.525391,1.0835,-12,-39,-2,-34,-56,1,-59,1,8416
-0.680112,-0.227021,2.57398,-33.375,93.8125,-52.6875,0.765625,0.360352,0.583496,-36,7,17,26,1,-6,-29,2,8434
-0.674815,-0.233645,2.54988,-27.25,55.875,-33.25,0.625,0.290527,0.27832,44,-2,-2,11,0,-9,4,-10,8450
-0.671234,-0.262155,2.53023,0.875,5.375,-17.625,0.60498,0.0878906,-0.00244141,55,-8,-4,-7,1,4,-7,15,8503
-0.666776,-0.282386,2.52881,8.6875,-8.8125,-10.9375,0.615234,0.161133,-0.134277,61,19,-5,-10,23,-6,-21,23,8520
-0.666171,-0.306197,2.53176,7.625,-15.875,-3.375,0.72998,0.132813,-0.263184,2,-17,-4,5,-37,-8,4,2,8538
-0.669628,-0.331386,2.53919,0.8125,-21.375,7.1875,0.786621,0.1875,-0.34082,-8,0,-8,-54,-24,8,-5,-13,8555
-0.676082,-0.353637,2.5539,-10,-31.8125,28.25,0.744629,0.296387,-0.237305,-16,0,2,-1,-2,-1,-15,-9,8573
-0.676082,-0.353637,2.5539,-10,-31.8125,28.25,0.744629,0.296387,-0.237305,36,-1,-12,7,6,-2,3,-33,8590
-0.676082,-0.353637,2.5539,-10,-31.8125,28.25,0.744629,0.296387,-0.237305,-48,-25,-4,-5,-10,-1,21,-1,8607
-0.676082,-0.353637,2.5539,-10,-31.8125,28.25,0.744629,0.296387,-0.237305,-28,-42,-17,-14,26,8,-15,-28,8624
-0.704189,-0.411342,2.66751,15.4375,-103.625,82.9375,0.681641,0.316406,0.304688,-19,3,-15,-11,12,-2,-5,-5,8641
-0.715192,-0.4247,2.72948,22.75,-135.125,108.438,0.633789,0.578613,1.04736,-9,40,27,52,49,-2,6,10,8659
-0.730602,-0.441494,2.81707,61.125,-186.75,139,0.683105,0.788574,1.76855,6,15,25,5,8,-2,-15,15,8676
-0.73886,-0.464577,2.92036,106.188,-227.75,153.188,0.682617,0.846191,2.24365,-25,-38,-17,-53,12,3,7,-22,8693
-0.73886,-0.464577,2.92036,106.188,-227.75,153.188,0.682617,0.846191,2.24365,-1,16,-10,-36,-3,8,-18,-29,8711
-0.740993,-0.510603,-3.14011,144.25,-237.375,165.813,0.839844,1.02734,2.67969,-57,-47,-34,-22,-1,1,-42,-15,8727
-0.740993,-0.510603,-3.14011,144.25,-237.375,165.813,0.839844,1.02734,2.67969,-38,43,-19,7,-29,-15,73,55,8745
-0.760121,-0.527054,-3.03792,90.3125,-207.938,153.938,0.703613,0.789551,2.56055,26,0,-37,10,-21,-32,94,-14,8763
-0.79043,-0.566204,-2.81361,71.8125,-132.938,88.3125,-0.0883789,0.577148,1.58252,-32,-17,18,18,-3,10,-91,-5,8821
-0.79043,-0.566204,-2.81361,71.8125,-132.938,88.3125,-0.0883789,0.577148,1.58252,2,11,4,5,-11,-15,35,-12,8838
-0.797753,-0.573144,-2.69751,67.5,-113.25,86.9375,-0.396973,0.208008,0.845703,2,11,4,5,-11,-15,35,-12,8855
-0.791162,-0.561634,-2.64962,69.75,-99.625,85.125,-0.458008,0.00292969,0.572266,15,21,2,-9,-7,3,7,10,8873
-0.787291,-0.543909,-2.61112,56.5,-66.75,76.25,-0.51416,-0.104004,0.415527,9,10,-2,-17,-6,5,-16,-18,8890
-0.785754,-0.518968,-2.58313,41.9375,-36.5625,64.3125,-0.676758,-0.187988,0.283691,-23,-10,-7,-13,7,3,1,39,8907
-0.786228,-0.489343,-2.57168,19.5625,0.5625,36.6875,-0.783691,-0.300781,0.183105,11,12,-1,-35,-21,20,-7,15,8925
-0.786228,-0.489343,-2.57168,19.5625,0.5625,36.6875,-0.783691,-0.300781,0.183105,-27,2,5,-2,-15,-5,18,-26,8942
-0.79043,-0.457143,-2.57862,-9.4375,32.25,-0.6875,-0.958984,-0.388184,0.112793,4,25,10,7,-15,-1,32,-2,8959
-0.791839,-0.426642,-2.60414,-27.0625,58.1875,-40.875,-1.03662,-0.37793,0.159668,35,43,-3,-5,-1,8,-3,8,8976
-0.788374,-0.399883,-2.64612,-41.9375,76.0625,-77.5625,-1.08838,-0.230957,0.274902,-17,-5,-27,-12,32,0,-22,-12,8994
-0.785452,-0.399561,-2.70034,-56.875,88.6875,-110.875,-0.915039,-0.0405273,0.458496,-34,-7,6,-33,-3,10,43,23,9012
-0.782031,-0.399074,-2.76978,-79.375,117.313,-135.188,-0.672852,0.150391,0.852051,-28,15,-32,-8,-6,0,-6,-18,9029
-0.777329,-0.40546,-2.85535,-82.8125,145.813,-173.375,-0.365723,0.596191,1.73975,20,9,-28,-54,-13,-7,25,-4,9047
-0.777329,-0.40546,-2.85535,-82.8125,145.813,-173.375,-0.365723,0.596191,1.73975,27,-14,54,3,-18,-8,-41,-22,9065
-0.758396,-0.417442,-3.04792,-99.1875,171.688,-198.438,0.71875,1.43848,2.88086,28,-62,-25,27,14,24,24,-20,9083
-0.779627,-0.408906,2.91757,-137.438,203.438,-179.813,0.681152,1.33252,2.39209,-110,-37,41,21,17,-58,18,-22,9150
-0.791663,-0.397475,2.83081,-132.188,184.813,-138.563,0.854004,1.20361,1.88672,0,37,-18,32,19,-23,18,2,9168
-0.791663,-0.397475,2.83081,-132.188,184.813,-138.563,0.854004,1.20361,1.88672,-3,65,-34,28,53,-23,94,24,9185
-0.798624,-0.384473,2.75472,-103,170.125,-114.563,0.858887,0.719727,1.3125,18,35,-47,-17,20,-8,121,1,9203
-0.789743,-0.377207,2.68359,-64.9375,153.25,-105.625,0.73584,0.529297,0.764648,0,-14,-23,-3,6,6,16,10,9220
-0.785636,-0.366794,2.62664,-56.3125,134.063,-76.375,0.630859,0.429688,0.36084,43,-3,4,0,4,23,14,22,9237
-0.78578,-0.354819,2.58378,-48.25,111.375,-48.6875,0.580566,0.278809,0.143066,0,-15,-15,5,-21,1,-14,-24,9254
-0.780353,-0.356954,2.55375,-20.75,79.625,-31,0.562012,0.204102,-0.0551758,39,20,10,-12,-26,2,20,29,9272
-0.775447,-0.363313,2.53699,-2.4375,50.4375,-13.5625,0.580566,0.216797,-0.225586,-36,-23,-2,0,7,5,-4,-4,9289
-0.774312,-0.373441,2.53252,1.5,26.375,7.0625,0.694824,0.202148,-0.268555,15,14,6,10,-18,-4,-6,16,9306
-0.776839,-0.386494,2.53785,3.125,6.625,24.1875,0.799805,0.164551,-0.279785,-13,-6,-8,-17,0,3,-42,-56,9324
-0.776839,-0.386494,2.53785,3.125,6.625,24.1875,0.799805,0.164551,-0.279785,17,-1,-1,11,62,-4,-44,-16,9341
-0.78162,-0.40127,2.55089,-0.6875,-11.875,37.375,0.824219,0.219727,-0.199707,-22,-11,1,7,-13,-5,38,33,9357
-0.788003,-0.418538,2.5742,3.5,-38.5,51.4375,0.826172,0.217773,-0.115723,4,-25,-8,-7,10,-8,-18,-74,9375
-0.794921,-0.437047,2.60838,16.4375,-64.9375,63.4375,0.77002,0.14209,-0.0668945,23,17,3,12,3,-2,32,-1,9393
-0.802152,-0.454824,2.6488,16.0625,-82.875,73.625,0.727051,0.165527,0.110352,-6,-9,-14,-22,-14,2,-32,44,9410
-0.829333,-0.481216,2.85439,97,-194.313,131.188,0.645996,0.847168,1.99707,46,-49,18,-8,-22,2,-7,22,9477
-0.832277,-0.494375,2.96618,141.438,-234.875,162.938,0.603516,0.922852,2.39014,-100,46,38,39,31,-9,-40,-12,9493
-0.843995,-0.506729,3.08981,136.938,-254.688,181.938,0.65332,1.03613,2.6167,-30,10,-44,-78,-4,-14,-28,-53,9510
-0.865882,-0.514252,-3.07751,99.5625,-233.063,174.125,0.770996,0.836914,2.56445,-17,-29,-45,37,-31,-8,-33,-128,9528
-0.865882,-0.514252,-3.07751,99.5625,-233.063,174.125,0.770996,0.836914,2.56445,43,25,-10,34,27,14,44,-4,9545
-0.885451,-0.520134,-2.98026,81.625,-196.938,142.063,0.738281,0.678223,2.47705,19,7,-49,-14,35,-2,46,-4,9563
-0.894491,-0.527227,-2.90174,86.8125,-164.25,107,0.501465,0.814941,2.21484,48,23,22,23,7,-4,19,11,9580
-0.909427,-0.529242,-2.83055,59.9375,-141.75,104.625,0.100098,0.805664,1.87891,58,-5,10,-32,-51,12,2,7,9597
-0.926701,-0.528394,-2.7614,50.1875,-134.625,105.75,-0.206055,0.489258,1.4707,-33,-26,14,-15,-42,3,32,17,9615
-0.928045,-0.52409,-2.70115,68.0625,-125.063,96.375,-0.379395,0.229492,1.08594,32,16,5,2,-9,0,-23,9,9632
-0.925005,-0.521885,-2.6489,72.3125,-111.313,78.375,-0.492188,0.194824,0.816895,-22,-12,-1,-27,18,8,-46,7,9649
-0.916142,-0.506689,-2.61078,51.8125,-89.75,65.1875,-0.575195,0.0302734,0.571777,-25,-14,-15,-36,-10,11,25,29,9665
-0.916142,-0.506689,-2.61078,51.8125,-89.75,65.1875,-0.575195,0.0302734,0.571777,28,11,-9,-10,6,1,-13,42,9685
-0.914041,-0.487046,-2.5799,33.5,-65.9375,54.375,-0.668945,-0.144531,0.428223,28,11,-9,-10,6,1,-13,42,9702
-0.914101,-0.466917,-2.55941,25.6875,-42.375,31.3125,-0.751465,-0.309082,0.267578,-25,-18,-11,-20,19,3,-13,-61,9719
-0.916309,-0.447415,-2.55243,7.3125,-16.3125,4.3125,-0.807617,-0.370605,0.189941,-36,-9,1,-9,1,0,16,-64,9736
-0.921611,-0.386924,-2.62921,-47.875,71.375,-78.9375,-0.970215,-0.231934,0.349609,32,21,9,-9,22,3,-1,-21,9799
-0.917594,-0.390174,-2.6846,-54.1875,100.063,-107.438,-0.833008,-0.0737305,0.458984,8,-56,-3,-35,-21,-2,-8,38,9816
-0.909327,-0.39365,-2.75794,-70.625,136,-132.375,-0.611328,0.21875,0.881836,1,15,-5,48,4,-6,-9,-6,9834
-0.904438,-0.400625,-2.84155,-78.5625,161.813,-152,-0.428711,0.787598,1.83643,-26,-30,-5,53,-70,-15,33,-74,9851
-0.904438,-0.400625,-2.84155,-78.5625,161.813,-152,-0.428711,0.787598,1.83643,-25,-34,-72,-59,-60,-1,5,-42,9867
-0.895013,-0.410712,-2.93395,-77.625,172.75,-173.875,0.230469,1.04199,2.46484,6,-46,1,-33,-24,0,-4,8,9885
-0.887946,-0.418804,-3.03974,-101.688,201.313,-192.563,0.841309,1.41064,2.98096,6,-46,1,-33,-24,0,-4,8,9902
-0.887946,-0.418804,-3.03974,-101.688,201.313,-192.563,0.841309,1.41064,2.98096,-4,-102,-6,-20,-16,11,-74,-42,9919
-0.904856,-0.424525,3.04005,-153.938,202.75,-162.438,0.890625,1.26221,2.47949,30,49,16,41,59,-3,-47,-19,9937
-0.915572,-0.423097,2.94603,-141.438,196.563,-147.813,0.842285,0.993652,2.16357,10,24,-17,3,-1,-15,42,6,9954
-0.92364,-0.420946,2.85945,-124.75,183.813,-132.063,0.700195,0.928711,1.79053,30,-14,-47,1,5,-10,-43,-10,9971
-0.92364,-0.420946,2.85945,-124.75,183.813,-132.063,0.700195,0.928711,1.79053,32,-4,-10,-6,0,1,-6,17,9987
-0.931243,-0.418946,2.72647,-78.5625,126.25,-82.9375,0.682129,0.462402,0.805176,-40,-12,8,-6,23,-8,-13,13,10004
-0.931243,-0.418946,2.72647,-78.5625,126.25,-82.9375,0.682129,0.462402,0.805176,0,13,-4,12,-33,-3,17,9,10021
-0.928487,-0.419471,2.67615,-59.75,108.563,-68.625,0.693848,0.377441,0.430176,-7,7,-10,7,1,3,-13,-1,10038
-0.919932,-0.429321,2.6351,-42.5,87.625,-47.25,0.612793,0.312012,0.152832,0,-4,-11,-13,3,2,-44,6,10054
-0.907025,-0.454203,2.58157,8.8125,32.5,5.125,0.643555,0.157715,-0.321289,9,18,17,-12,32,3,8,-5,10112
-0.906301,-0.464295,2.58323,14.5625,16.9375,20.375,0.727051,0.169434,-0.343262,-4,13,2,4,0,-5,-27,-14,10128
-0.906301,-0.464295,2.58323,14.5625,16.9375,20.375,0.727051,0.169434,-0.343262,-33,-2,-10,-9,21,0,-66,1,10145
-0.908062,-0.47464,2.59162,6.6875,-0.9375,33.25,0.724609,0.26416,-0.233398,13,-11,3,-25,-22,-6,-18,-18,10163
-0.914174,-0.485413,2.61433,9.8125,-35.125,50.5625,0.667969,0.234375,-0.131348,-2,3,-2,-4,-13,0,-29,0,10180
-0.923546,-0.498513,2.65097,21.625,-67.0625,65.6875,0.706543,0.155762,-0.116211,-45,-8,-15,-32,8,6,9,2,10197
-0.933156,-0.514312,2.69482,19.9375,-94.5625,69.625,0.699707,0.18457,0.123047,62,25,54,27,38,10,16,17,10214
-0.952709,-0.52239,2.75665,19,-139.375,82.25,0.639648,0.349609,0.776855,-6,-20,-50,-28,-15,-6,14,3,10231
-0.974209,-0.529151,2.8443,64.4375,-189.625,108.125,0.710938,0.690918,1.56641,-5,0,-21,-26,-6,24,75,5,10248
-0.980854,-0.536189,2.94763,131.375,-223,125.688,0.827637,0.749023,1.99805,-9,5,36,-38,-23,7,10,-24,10265
-0.980854,-0.536189,2.94763,131.375,-223,125.688,0.827637,0.749023,1.99805,18,-46,-7,2,-31,20,-95,-36,10282
-0.976664,-0.542857,3.05735,173.563,-234.688,134.875,0.697266,0.981934,2.47852,-9,3,-53,-50,-24,13,-59,-24,10299
-0.980552,-0.54545,-3.10543,167.688,-249.375,158.875,0.687988,1.14648,2.61719,-19,-20,13,-5,-48,-6,-29,-5,10316
-0.993931,-0.545598,-2.99686,123.375,-222.375,146.188,0.772461,0.855469,2.50439,37,36,-35,3,-4,-22,116,22,10332
-0.993931,-0.545598,-2.99686,123.375,-222.375,146.188,0.772461,0.855469,2.50439,36,103,-6,60,70,-4,111,9,10350
-1.0037,-0.548766,-2.90446,109.688,-195.125,114.813,0.581543,0.76123,2.40771,0,28,-40,1,15,-1,-19,11,10368
-1.01272,-0.517742,-2.63646,73.9375,-101.438,105.313,-0.399414,0.173828,0.968262,-4,12,-6,11,16,-5,50,-25,10438
-1.00815,-0.498695,-2.58898,69.4375,-82.6875,102,-0.615723,0.0615234,0.738281,7,8,-2,15,13,-2,-23,-22,10455
-0.997301,-0.46012,-2.55523,55.25,-52.6875,97.125,-0.725586,-0.127441,0.500488,31,19,-5,-3,-11,4,0,-10,10472
-0.997301,-0.46012,-2.55523,55.25,-52.6875,97.125,-0.725586,-0.127441,0.500488,-5,-9,1,-2,-8,-5,-44,-15,10490
-0.994833,-0.376743,-2.52912,5.5,16.8125,53.8125,-0.877441,-0.404297,0.206055,-9,4,2,-3,-4,-5,53,17,10507
-0.994833,-0.376743,-2.52912,5.5,16.8125,53.8125,-0.877441,-0.404297,0.206055,0,-1,2,-7,2,6,-26,37,10524
-0.998341,-0.34014,-2.53805,-13.625,43.75,19.4375,-0.837402,-0.42627,0.162598,-4,1,6,10,-22,-1,8,9,10541
-1.00279,-0.312055,-2.56156,-32.8125,63.75,-19.625,-0.827148,-0.340332,0.181152,19,-9,16,0,27,8,-1,-14,10559
-1.00562,-0.2905,-2.59481,-47.0625,71.4375,-50.9375,-0.892578,-0.245117,0.330566,-8,27,-12,22,30,-5,-35,-32,10576
-1.00103,-0.279378,-2.63716,-43,77.6875,-82.8125,-0.817383,-0.111816,0.440918,24,-14,-21,-17,-15,7,21,7,10593
-1.00103,-0.279378,-2.63716,-43,77.6875,-82.8125,-0.817383,-0.111816,0.440918,-18,-14,-2,-8,-5,-5,-18,-9,10610
-0.998951,-0.307622,-2.75948,-59.1875,125.875,-143.75,-0.426758,0.587891,1.49561,21,26,13,29,-6,-11,-8,22,10627
-0.998951,-0.307622,-2.75948,-59.1875,125.875,-143.75,-0.426758,0.587891,1.49561,-13,6,16,13,18,-8,1,-28,10644
-1.00028,-0.328911,-2.83355,-70.25,136.75,-160.313,0.0864258,1.02246,2.19434,-2,-3,-45,15,-17,-10,37,-2,10661
-1.00597,-0.347881,-2.92112,-99.5625,170.25,-173.125,0.692871,1.25146,2.72168,13,28,57,-20,-3,3,-42,-5,10677
-1.01183,-0.367124,-3.01541,-111.75,185.188,-181.813,1.02734,1.34082,2.90332,-2,0,5,50,35,9,-7,27,10693
-1.02285,-0.38254,-3.10749,-128,185.75,-166.688,1.10254,1.32959,2.55469,-15,7,31,-22,-53,-77,-9,-19,10749
-1.04182,-0.392111,3.08702,-150.438,188.188,-144.188,0.962402,1.0166,2.2002,14,-53,-11,-36,-18,64,-71,-91,10766
-1.07466,-0.406546,2.92737,-130.563,166.938,-112.813,0.618652,0.662598,1.48486,-2,43,21,0,-3,-27,-8,27,10784
-1.08133,-0.41461,2.8592,-114.375,145.063,-92.9375,0.601074,0.496582,1.00928,-59,-41,-11,17,56,65,-58,-45,10801
-1.09006,-0.420908,2.80296,-101.563,121.75,-74.0625,0.532715,0.388672,0.613281,26,-13,-15,-18,4,-68,0,16,10819
-1.0892,-0.434649,2.75864,-69.0625,95,-49.75,0.554199,0.272461,0.207031,38,19,3,-3,5,-40,43,34,10836
-1.08503,-0.441993,2.72627,-40,79.3125,-16.25,0.730957,0.0229492,0.225586,-7,-5,5,0,-1,-22,33,-9,10853
-1.06421,-0.443204,2.70589,46.4375,66.9375,0.875,0.541504,-0.019043,-0.19873,-14,-9,4,0,5,8,-1,11,10870
-1.06421,-0.443204,2.70589,46.4375,66.9375,0.875,0.541504,-0.019043,-0.19873,1,15,16,15,27,10,26,-3,10887
-1.04745,-0.450433,2.69502,48.0625,36.5625,-5.0625,0.418945,0.146973,-0.331543,-15,-7,-6,1,5,-8,9,-7,10904
-1.03323,-0.465663,2.69462,45.375,6.375,3.5,0.517578,0.467285,-0.382324,-1,3,-5,-5,-15,-3,0,0,10920
-1.03555,-0.483885,2.7046,11.375,-12.3125,24,0.844238,0.368652,-0.315918,1,-2,-9,-5,-6,5,3,2,10937
-1.04045,-0.497663,2.71885,5.9375,-22.3125,31.875,0.774902,0.21582,-0.150879,-8,-6,-21,-3,-5,-7,-3,-1,10954
-1.03773,-0.510981,2.74303,33.625,-51.125,41.6875,0.688965,0.240234,0.000976563,-3,-5,-7,-16,-1,-6,-6,-5,10971
-1.03788,-0.523545,2.78088,39.0625,-82.0625,61.9375,0.6875,0.281738,0.0874023,4,5,-16,14,0,9,0,-3,10988
-1.03788,-0.523545,2.78088,39.0625,-82.0625,61.9375,0.6875,0.281738,0.0874023,-7,0,15,2,4,-4,90,-3,11005
-1.0825,-0.503208,2.942,37.5,-142.375,120.063,0.489258,0.791992,1.78857,-5,-9,-4,42,9,3,19,-1,11073
-1.09487,-0.493977,3.0379,96.125,-201.563,135.688,0.266602,0.456543,2.34912,1,-16,-21,-10,-1,2,7,1,11090
-1.08208,-0.483153,-3.03262,150.438,-229.188,134.25,0.585938,0.821777,2.28613,13,-12,22,-10,-13,15,-76,-2,11107
-1.08208,-0.483153,-3.03262,150.438,-229.188,134.25,0.585938,0.821777,2.28613,-16,10,32,56,10,-9,16,-7,11125
-1.09093,-0.481306,-2.94228,94.875,-200.563,111.625,0.605957,0.684082,1.98828,-6,27,42,9,13,-4,41,-4,11142
-1.10816,-0.473548,-2.8648,52.5625,-165.688,109.063,0.581055,0.663086,1.94189,8,1,-14,-19,7,-8,50,2,11159
-1.13022,-0.457184,-2.79604,25.4375,-138,119.313,0.418945,0.694336,1.8042,12,4,-1,2,-2,-4,-98,0,11176
-1.14966,-0.434804,-2.73577,18.25,-114.625,123.125,0.177734,0.470703,1.60205,8,-24,-13,0,6,17,6,0,11193
-1.14966,-0.434804,-2.73577,18.25,-114.625,123.125,0.177734,0.470703,1.60205,-4,-9,-8,-4,-3,3,-13,-2,11210
-1.11602,-0.389334,-2.64734,72.875,-97.6875,97.9375,-0.184082,0.23291,0.970215,-2,8,-2,0,-5,1,-22,-4,11227
-1.11602,-0.389334,-2.64734,72.875,-97.6875,97.9375,-0.184082,0.23291,0.970215,1,-33,-1,3,-4,-3,-69,-3,11244
-1.08227,-0.36921,-2.61312,88.5625,-80.8125,80.4375,-0.263184,0.15918,0.703125,-4,-9,-5,2,3,1,-7,1,11261
-1.05724,-0.346887,-2.58096,77.625,-69.875,72.6875,-0.434082,0.0146484,0.473145,-2,0,-18,-56,10,11,20,-2,11277
-1.04176,-0.315094,-2.55457,59.625,-46.25,69,-0.752441,-0.125488,0.24707,-3,4,-8,-15,-2,-3,-7,-1,11295
-1.02299,-0.275664,-2.54269,67.6875,-2.4375,57.5,-0.959961,-0.0952148,-0.00341797,10,15,-5,6,2,5,-12,-9,11312
-1.02299,-0.275664,-2.54269,67.6875,-2.4375,57.5,-0.959961,-0.0952148,-0.00341797,-10,8,9,14,-11,-11,13,19,11329
-1.01537,-0.180077,-2.61655,-9.0625,105.188,-19.5625,-0.931641,-0.368652,0.196289,-1,11,5,-1,0,-1,-8,-1,11391
-1.0082,-0.169502,-2.66375,-5,119.875,-58.3125,-0.884766,-0.273926,0.274902,0,12,-10,-9,-2,5,4,-6,11407
-1.0082,-0.169502,-2.66375,-5,119.875,-58.3125,-0.884766,-0.273926,0.274902,-4,-21,26,-8,-5,-6,12,-1,11424
-0.985724,-0.18058,-2.7948,-16.9375,145,-143.75,-0.56543,0.212891,1.33936,5,18,-93,-46,-7,3,102,3,11441
-0.979929,-0.208709,-2.86165,-20.4375,111.875,-171.375,-0.558105,1.22363,2.31543,21,16,73,69,14,4,33,0,11458
-0.983178,-0.244429,-2.9221,-48.5625,83.4375,-178.938,0.327148,1.40137,2.79785,26,27,38,22,7,-5,2,5,11475
-1.00507,-0.278682,-2.98903,-112.313,101.688,-183.375,1.20166,1.37598,2.94531,-9,37,99,-6,-2,-18,-62,0,11492
-1.00507,-0.278682,-2.98903,-112.313,101.688,-183.375,1.20166,1.37598,2.94531,-7,-36,-17,-41,-14,-24,41,2,11509
-1.02814,-0.315812,-3.05618,-122.313,100.75,-187.563,1.15918,1.38428,2.625,-13,-71,-18,-9,6,7,1,8,11526
-1.05066,-0.351173,-3.13024,-134.375,121.563,-189.125,1.09717,1.21582,2.25244,21,-24,-30,-16,12,19,-101,1,11542
-1.07251,-0.381482,3.08029,-137,127.25,-170.5,0.868164,1.0415,1.85254,22,30,49,17,-10,16,-49,-4,11559
-1.07251,-0.381482,3.08029,-137,127.25,-170.5,0.868164,1.0415,1.85254,0,25,-27,20,22,-1,67,-7,11576
-1.08805,-0.426663,2.95618,-87,106.313,-115.25,0.713867,0.556152,0.882813,13,-6,4,11,6,2,-21,2,11593
-1.08353,-0.447247,2.90664,-56.1875,87.375,-101.188,0.570801,0.379395,0.490723,8,0,-14,0,-7,4,71,-4,11610
-1.08353,-0.447247,2.90664,-56.1875,87.375,-101.188,0.570801,0.379395,0.490723,4,4,-15,-3,-4,-5,-39,0,11628
-1.07238,-0.471757,2.86519,-39.3125,68.6875,-77.5,0.466797,0.305176,0.187988,3,4,-6,-8,-9,1,-47,0,11645
-1.07404,-0.523407,2.81631,1.9375,13.25,-13.625,0.515137,0.171387,-0.353027,2,-7,1,1,-8,3,14,1,11709
-1.08021,-0.537228,2.82357,12.9375,-1.6875,9.6875,0.616699,0.112305,-0.451172,-1,-1,4,8,-7,-7,22,4,11727
-1.0875,-0.547912,2.83553,13,-6.5625,29.5625,0.693359,0.183105,-0.413086,-3,-1,-2,-6,-3,-1,21,2,11744
-1.09655,-0.554412,2.85171,1.4375,-15.8125,51.5625,0.73291,0.322754,-0.231445,-2,-2,-14,-4,5,-2,3,-5,11760
-1.10678,-0.555467,2.87908,5,-36.875,83.8125,0.824707,0.371582,-0.0688477,-1,-3,8,7,0,3,3,-2,11777
-1.12219,-0.537548,2.92056,13.9375,-64.1875,104.75,0.881836,0.240234,0.168457,8,7,4,-2,4,5,-17,1,11793
-1.12219,-0.537548,2.92056,13.9375,-64.1875,104.75,0.881836,0.240234,0.168457,-4,-7,-4,-2,-3,-4,5,4,11810
-1.13008,-0.516512,2.96173,25.375,-66.5,112.938,0.94873,0.258301,0.678223,-14,12,-49,-57,-7,-10,59,-3,11827
-1.13642,-0.487267,3.01126,50.0625,-77.25,128.688,0.885742,0.725586,1.42285,-8,28,22,64,16,-5,28,-4,11844
-1.14035,-0.464175,3.0904,92.5625,-155.188,144.688,0.541504,0.842773,2.19775,31,13,-26,-35,-24,17,-126,-14,11861
-1.13738,-0.443112,-3.09344,133.5,-207.438,161.75,0.645508,0.580078,2.46777,-104,-52,39,40,-3,-8,-49,5,11880
-1.13562,-0.42488,-2.99293,126,-215.188,157.5,0.638184,0.845703,2.4707,-92,66,13,10,7,-30,82,-6,11897
-1.13562,-0.42488,-2.99293,126,-215.188,157.5,0.638184,0.845703,2.4707,27,61,-34,-10,2,-13,89,-4,11914
-1.14224,-0.411032,-2.90247,86.25,-198.563,135.25,0.676758,0.629395,2.14355,19,28,-45,3,4,0,14,10,11931
-1.15065,-0.400959,-2.82728,61,-168.813,107.75,0.620605,0.650391,1.95264,17,-12,-16,-25,0,3,-35,3,11948
-1.1606,-0.388714,-2.7629,42.5,-141.625,100.938,0.360352,0.76123,1.86816,12,-21,1,8,-6,0,-38,-7,11965
-1.17591,-0.361855,-2.65013,27.9375,-125,91.375,-0.0786133,0.432617,1.36084,-16,-7,-17,5,-2,0,19,3,12027
-1.14731,-0.327359,-2.56528,54.875,-91.3125,78.6875,-0.338867,0.172852,0.723145,-5,7,-2,-7,-1,1,20,-1,12044
-1.12425,-0.303635,-2.52948,67.6875,-84.625,73.5,-0.498535,0.0385742,0.507324,-5,7,-2,-7,-1,1,20,-1,12061
-1.12425,-0.303635,-2.52948,67.6875,-84.625,73.5,-0.498535,0.0385742,0.507324,14,23,8,19,0,-2,-17,-1,12078
-1.09326,-0.256302,-2.47737,47.6875,-45.0625,39.625,-0.707031,-0.226563,0.193848,7,6,-18,-5,1,4,19,-5,12095
-1.08958,-0.230735,-2.4706,19.375,-13,13.4375,-0.924805,-0.323242,0.10498,3,2,-8,6,-2,-7,-34,9,12113
-1.08958,-0.230735,-2.4706,19.375,-13,13.4375,-0.924805,-0.323242,0.10498,4,-1,7,10,0,-1,-2,2,12131
-1.0885,-0.189674,-2.50671,-11.3125,58.875,-49.875,-0.879883,-0.357422,0.145996,3,11,-18,-19,1,6,13,-6,12147
-1.0885,-0.189674,-2.50671,-11.3125,58.875,-49.875,-0.879883,-0.357422,0.145996,-6,5,-11,62,9,-5,-17,-2,12165
-1.08291,-0.184141,-2.54631,-23.0625,78.375,-82.75,-0.728516,-0.13916,0.363281,-4,24,23,-9,-1,0,10,0,12182
-1.08196,-0.196636,-2.59338,-32.375,93.0625,-103.313,-0.642578,0.0498047,0.589844,-1,-18,-7,31,3,-6,7,0,12200
-1.07533,-0.214156,-2.65226,-35.0625,114.875,-126.5,-0.397949,0.297852,1.12842,-5,-27,-24,-88,-10,11,29,-1,12217
-1.06965,-0.23783,-2.71568,-24.125,123.375,-144.25,-0.187988,0.982422,1.89209,-5,-13,-16,-18,-6,-7,42,1,12234
-1.06965,-0.23783,-2.71568,-24.125,123.375,-144.25,-0.187988,0.982422,1.89209,2,5,-22,69,10,7,-29,3,12251
-1.07141,-0.269617,-2.78251,-53.5,118.875,-168.938,0.407227,1.19531,2.36328,-2,-9,-7,-36,-9,2,-1,-4,12267
-1.07141,-0.269617,-2.78251,-53.5,118.875,-168.938,0.407227,1.19531,2.36328,10,7,34,13,2,1,43,-3,12285
-1.17204,-0.376306,-3.09338,-166.313,160.5,-140.25,0.978027,1.01074,2.01807,-14,-28,-12,-33,-15,0,-106,-6,12342
-1.19573,-0.398237,3.1187,-144.938,150.813,-129.625,0.759277,0.808594,1.62744,-9,13,23,14,4,-6,-42,-2,12360
-1.19573,-0.398237,3.1187,-144.938,150.813,-129.625,0.759277,0.808594,1.62744,-1,17,5,4,8,0,76,3,12378
-1.21209,-0.416328,3.05671,-117.063,133.75,-106.813,0.619629,0.778809,1.28613,-5,-6,-7,4,4,-9,19,4,12395
-1.21209,-0.416328,3.05671,-117.063,133.75,-106.813,0.619629,0.778809,1.28613,5,-5,-9,4,6,0,-40,-4,12412
-1.17886,-0.474991,2.95663,-30.375,79.1875,-68.8125,0.719238,0.265137,0.36377,7,0,0,-13,-14,-4,-48,2,12428
-1.16663,-0.50012,2.92254,-18.8125,65.625,-55.3125,0.645996,0.255859,0.0454102,1,-2,-1,4,0,2,16,3,12445
-1.16663,-0.50012,2.92254,-18.8125,65.625,-55.3125,0.645996,0.255859,0.0454102,0,-4,-1,-7,-1,-1,19,-2,12462
-1.16376,-0.537765,2.8809,-19.5,41.625,-21.375,0.65332,0.166016,-0.23877,0,-1,1,2,1,0,-1,-1,12479
-1.16376,-0.537765,2.8809,-19.5,41.625,-21.375,0.65332,0.166016,-0.23877,0,-4,-3,-3,1,1,0,-2,12496
-1.1685,-0.554344,2.8734,-11.0625,23.875,-11.8125,0.649414,0.108887,-0.297852,-1,-3,1,-6,-3,0,14,-4,12513
-1.1685,-0.554344,2.8734,-11.0625,23.875,-11.8125,0.649414,0.108887,-0.297852,-6,-4,0,0,-1,-2,-2,-4,12530
-1.17408,-0.58741,2.87948,16.4375,1.25,16.8125,0.813477,0.242676,-0.317871,-3,1,-3,-3,0,-4,6,0,12548
-1.17666,-0.596813,2.89199,14.8125,-11.625,45.375,0.833496,0.386719,-0.210938,0,2,5,5,0,0,23,-3,12565
-1.17666,-0.596813,2.89199,14.8125,-11.625,45.375,0.833496,0.386719,-0.210938,-2,4,14,6,0,-3,-23,-2,12581
-1.20164,-0.594943,2.94718,-6.375,-51.0625,93.8125,0.811035,0.213867,0.218262,-1,-11,-6,-4,-2,1,64,-1,12597
-1.27647,-0.513717,-3.11056,103.938,-219.313,150.438,0.682129,0.324219,2.36279,14,21,-18,-31,-14,3,-71,-13,12670
-1.25837,-0.485107,-2.99949,204.563,-242.688,162,0.675781,0.535645,2.58936,30,-35,25,10,-13,21,-128,-9,12687
-1.25837,-0.485107,-2.99949,204.563,-242.688,162,0.675781,0.535645,2.58936,-17,41,26,16,3,-28,-26,-2,12704
-1.22863,-0.436786,-2.80177,133.063,-192.063,140.313,0.96582,0.901367,2.1709,-8,33,-7,5,9,-3,45,6,12721
-1.22863,-0.436786,-2.80177,133.063,-192.063,140.313,0.96582,0.901367,2.1709,17,5,-39,-9,11,3,40,5,12739
-1.23822,-0.419073,-2.7263,61.8125,-169,112.688,0.583496,0.890137,2.14648,18,4,-2,-8,-2,11,29,-3,12756
-1.2456,-0.399424,-2.66208,52.375,-141.688,108,0.244141,0.822754,1.94043,-5,-11,-3,-9,-8,10,-80,-11,12773
-1.25267,-0.378091,-2.60829,38.375,-116.063,103.125,-0.027832,0.654785,1.48877,-9,-17,-5,-9,-9,-6,13,-11,12791
-1.22984,-0.354883,-2.5749,28.25,-91.75,91.875,-0.106445,0.334961,1.05762,-6,4,-6,2,3,5,-14,5,12809
-1.22984,-0.354883,-2.5749,28.25,-91.75,91.875,-0.106445,0.334961,1.05762,6,-17,-14,-3,1,-7,41,7,12826
-1.18244,-0.308684,-2.52441,50.375,-60.875,56.3125,-0.510254,0.0668945,0.730957,-8,-2,4,1,1,-4,33,0,12843
-1.1556,-0.284118,-2.4988,69.375,-64.5,50.9375,-0.669922,-0.0185547,0.5,0,-7,-4,2,0,-6,8,-5,12860
-1.136,-0.259758,-2.47619,61.9375,-52.8125,42.125,-0.719238,-0.18457,0.281738,4,15,3,0,4,8,-9,1,12877
-1.12978,-0.234669,-2.46137,28.6875,-32.625,26.75,-0.825195,-0.343262,0.161133,2,-5,-1,-2,-1,1,12,-3,12894
-1.12978,-0.234669,-2.46137,28.6875,-32.625,26.75,-0.825195,-0.343262,0.161133,1,-12,-8,-2,2,-1,-16,0,12912
-1.13017,-0.2132,-2.45596,6.5625,-16,-0.125,-0.909668,-0.454102,0.149902,-1,-7,-4,-3,5,0,36,-3,12930
-1.14257,-0.209902,-2.53004,-46.4375,73.25,-103.813,-0.708496,-0.121582,0.416016,8,-8,48,46,4,-4,6,3,12988
-1.1535,-0.234143,-2.586,-79.6875,108.625,-132.75,-0.39502,0.119629,0.786621,-9,16,-2,-27,0,6,15,6,13005
-1.17423,-0.260523,-2.65491,-107.688,145.875,-145,-0.216797,0.550781,1.51416,-6,-55,6,13,-3,-2,15,3,13022
-1.17423,-0.260523,-2.65491,-107.688,145.875,-145,-0.216797,0.550781,1.51416,-6,11,-16,-18,-2,3,-5,-3,13039
-1.19314,-0.290955,-2.72753,-110.75,152.625,-156.563,-0.0375977,0.926758,2.22705,14,-2,-10,7,7,1,33,0,13055
-1.21465,-0.324856,-2.80878,-132.375,172.313,-170.438,0.509766,1.37061,2.729,-15,-11,-1,-3,-2,-35,-4,-1,13072
-1.24602,-0.353354,-2.88931,-167,178.188,-149.75,1.0498,1.47119,2.86914,12,-53,-16,-14,-7,-10,12,4,13089
-1.27225,-0.380165,-2.9672,-155.125,174.75,-136.875,1.08594,1.18848,2.50049,-20,-40,10,8,-2,6,-40,-2,13106
-1.29215,-0.405488,-3.04469,-141.688,175.938,-128,0.936035,1.14307,2.22559,-16,7,19,8,3,10,-47,-2,13122
-1.30766,-0.425269,-3.11475,-125.563,161.938,-104,0.763672,0.932617,1.84424,-5,11,15,4,-2,9,-41,-5,13139
-1.31533,-0.440151,3.10777,-95.125,141.688,-81.5625,0.657715,0.750977,1.40967,4,17,9,6,-4,-6,-36,-1,13157
-1.31533,-0.440151,3.10777,-95.125,141.688,-81.5625,0.657715,0.750977,1.40967,3,24,0,3,-3,-7,-49,7,13174
-1.30504,-0.455405,3.05858,-48.125,107.625,-58.875,0.777344,0.570801,0.961914,-16,15,-12,14,13,-13,38,4,13190
-1.30504,-0.455405,3.05858,-48.125,107.625,-58.875,0.777344,0.570801,0.961914,6,12,-25,-2,5,-1,59,5,13207
-1.30504,-0.455405,3.05858,-48.125,107.625,-58.875,0.777344,0.570801,0.961914,6,-6,-9,-6,-1,0,11,2,13224
-1.26074,-0.51908,2.98123,-11,63.4375,-62.875,0.691406,0.216309,0.208008,5,-2,0,-7,-5,6,-89,-1,13241
-1.23521,-0.598549,2.91779,14.25,12.875,-7.1875,0.69043,0.0932617,-0.417969,-3,7,3,-1,2,1,0,-3,13315
-1.23521,-0.598549,2.91779,14.25,12.875,-7.1875,0.69043,0.0932617,-0.417969,-5,-3,-10,-9,-7,-4,26,3,13331
-1.24634,-0.628485,2.92937,1,-4.25,20.25,0.708496,0.295898,-0.269531,-4,-6,-5,-11,-4,2,-7,-2,13347
-1.25726,-0.631914,2.94897,1.3125,-29.25,56.8125,0.69873,0.371582,-0.122559,-7,-9,-8,-1,-6,-1,-1,-2,13365
-1.25726,-0.631914,2.94897,1.3125,-29.25,56.8125,0.69873,0.371582,-0.122559,-6,20,13,-7,-7,-8,-2,-2,13382
-1.28458,-0.615744,3.00942,-9.375,-65.1875,99.8125,0.807129,0.190918,0.499512,-3,2,-58,-16,4,4,33,-1,13400
-1.30411,-0.585572,3.05603,19.1875,-82.5625,112.875,0.773438,0.585449,1.30322,-3,-9,13,16,5,5,58,-2,13417
-1.30411,-0.585572,3.05603,19.1875,-82.5625,112.875,0.773438,0.585449,1.30322,-5,-14,7,18,0,0,-54,2,13434
-1.30411,-0.585572,3.05603,19.1875,-82.5625,112.875,0.773438,0.585449,1.30322,3,31,31,20,-11,-17,-21,-8,13451
-1.32368,-0.52288,-3.05491,139.25,-209.875,147.125,0.492188,0.604004,2.49561,-19,-20,-11,-9,-20,-12,-72,-4,13467
-1.3168,-0.491654,-2.94559,171.813,-243.25,154.813,0.516602,0.789063,2.42236,-12,-34,14,2,-1,-1,-46,1,13485
-1.3168,-0.491654,-2.94559,171.813,-243.25,154.813,0.516602,0.789063,2.42236,-20,-22,-10,3,6,-6,-18,6,13503
-1.3168,-0.491654,-2.94559,171.813,-243.25,154.813,0.516602,0.789063,2.42236,4,51,-8,-6,10,-3,75,5,13520
-1.31672,-0.443518,-2.77019,77.6875,-174.5,109.25,0.806641,0.650391,2.02002,19,-7,-16,-12,-2,0,20,-3,13538
-1.32622,-0.423237,-2.70703,48.625,-144.875,96.4375,0.513184,0.629395,2.02637,13,-17,-4,-13,-1,16,-90,-2,13556
-1.3199,-0.383705,-2.60809,47.3125,-109.188,86.3125,0.0146484,0.556152,1.36963,5,23,-1,-6,1,0,35,1,13573
-1.23635,-0.312793,-2.52203,64.375,-65.5625,68.25,-0.411621,0.0693359,0.557617,3,21,-4,-6,2,6,20,-1,13644
-1.21801,-0.285619,-2.49421,57.8125,-64.4375,62.75,-0.541992,-0.114746,0.345215,5,2,5,3,0,-6,-31,-2,13660
-1.21801,-0.285619,-2.49421,57.8125,-64.4375,62.75,-0.541992,-0.114746,0.345215,-1,8,-4,-5,-1,10,-9,-7,13677
-1.20971,-0.241926,-2.46342,13.75,-18.875,17.6875,-0.640137,-0.39209,0.0791016,-1,-12,-3,-6,1,-1,9,-1,13694
-1.20971,-0.241926,-2.46342,13.75,-18.875,17.6875,-0.640137,-0.39209,0.0791016,0,20,-10,-9,-8,-21,31,1,13711
-1.21168,-0.225741,-2.46834,-6.0625,9.125,-16.625,-0.776855,-0.403809,0.109375,1,-9,8,4,-3,-2,-3,-4,13729
-1.21168,-0.225741,-2.46834,-6.0625,9.125,-16.625,-0.776855,-0.403809,0.109375,0,16,5,11,7,7,-15,-3,13745
-1.21376,-0.213109,-2.51241,-27.9375,52.125,-76.625,-0.862305,-0.21875,0.208984,2,-3,-22,-22,0,15,-11,-1,13763
-1.21271,-0.215428,-2.54915,-46.25,70,-90.4375,-0.763672,-0.0395508,0.423828,-4,-7,0,9,3,-2,-6,-2,13780
-1.21271,-0.215428,-2.54915,-46.25,70,-90.4375,-0.763672,-0.0395508,0.423828,0,41,28,18,5,4,-5,2,13797
-1.21624,-0.265606,-2.64549,-39.6875,107.625,-128.375,-0.343262,0.731445,1.77344,5,10,-17,20,9,11,14,-7,13814
-1.21624,-0.265606,-2.64549,-39.6875,107.625,-128.375,-0.343262,0.731445,1.77344,-4,-3,45,-77,-6,-2,-7,1,13831
-1.21828,-0.303097,-2.70021,-50,104,-153.063,0.405762,1.1958,2.32422,3,17,22,21,10,3,3,1,13849
-1.21828,-0.303097,-2.70021,-50,104,-153.063,0.405762,1.1958,2.32422,10,12,-21,1,-6,-2,-3,-3,13867
-1.25386,-0.366681,-2.83117,-134.75,135.875,-131.75,1.24561,1.74121,2.76221,16,3,15,17,-2,1,-46,-2,13885
-1.2767,-0.389892,-2.89356,-131.875,138.688,-113.5,1.44629,1.19824,2.19434,3,-72,2,-4,-3,14,-76,-8,13902
-1.28763,-0.451032,-3.0802,-71.9375,123.063,-88.375,0.723145,0.509766,1.04199,-3,-7,-7,7,-1,-1,2,-2,13968
-1.28763,-0.451032,-3.0802,-71.9375,123.063,-88.375,0.723145,0.509766,1.04199,11,7,0,3,1,9,2,-1,13985
-1.25244,-0.511843,3.10909,-49.625,65.6875,-65.3125,0.594727,0.292969,0.514648,-4,0,-9,-1,-2,-12,9,17,14003
-1.25244,-0.511843,3.10909,-49.625,65.6875,-65.3125,0.594727,0.292969,0.514648,2,-3,-9,-4,-1,-1,11,-5,14019
-1.24785,-0.536166,3.08251,-45.5625,41,-47.4375,0.536133,0.257813,0.280762,3,-4,-9,-6,-1,1,-27,-2,14036
-1.24785,-0.536166,3.08251,-45.5625,41,-47.4375,0.536133,0.257813,0.280762,2,-4,-6,-4,-4,-2,-19,-4,14052
-1.26308,-0.57637,3.0651,-28.1875,7.5625,-23.9375,0.527344,0.0610352,-0.181641,5,-1,7,2,-1,2,11,2,14069
-1.27637,-0.594789,3.06607,-20.875,3,-18.1875,0.559082,0.0273438,-0.291992,-2,-2,6,4,0,0,-9,-2,14086
-1.27637,-0.594789,3.06607,-20.875,3,-18.1875,0.559082,0.0273438,-0.291992,-2,1,-3,0,-4,-3,-16,-2,14102
-1.29853,-0.630575,3.075,-11.4375,-4,0.3125,0.640625,0.242188,-0.272461,0,-1,1,6,-2,1,-5,1,14119
-1.29853,-0.630575,3.075,-11.4375,-4,0.3125,0.640625,0.242188,-0.272461,1,1,7,-3,-1,-2,3,-4,14136
-1.31022,-0.639674,3.08205,-19.5625,-7.5,27.8125,0.648438,0.337891,-0.134277,0,-5,-10,-10,-3,1,-1,-1,14153
-1.31022,-0.639674,3.08205,-19.5625,-7.5,27.8125,0.648438,0.337891,-0.134277,-2,6,10,25,6,3,-5,10,14170
-1.31022,-0.639674,3.08205,-19.5625,-7.5,27.8125,0.648438,0.337891,-0.134277,-6,-19,0,1,4,0,-14,6,14187
-1.31176,-0.621327,3.11262,4.25,-24.5,90.375,0.759277,0.464355,0.861328,-2,2,-32,-17,-12,-5,-8,-12,14205
-1.31176,-0.621327,3.11262,4.25,-24.5,90.375,0.759277,0.464355,0.861328,2,20,60,65,1,2,32,-3,14222
-1.2779,-0.480408,-2.87129,123.438,-120.313,95.125,0.688477,0.45752,1.91406,0,16,-20,-31,-34,-15,88,8,14292
-1.2779,-0.480408,-2.87129,123.438,-120.313,95.125,0.688477,0.45752,1.91406,16,14,-23,-16,5,1,42,4,14310
-1.28107,-0.463778,-2.82352,53.125,-103.063,80.75,0.463379,0.605469,1.82031,7,10,14,4,-6,5,4,-1,14328
-1.28107,-0.463778,-2.82352,53.125,-103.063,80.75,0.463379,0.605469,1.82031,-8,-23,18,-1,-1,6,5,0,14345
-1.26359,-0.430547,-2.75009,21,-94.875,74.9375,0.0126953,0.352051,1.38672,1,-3,6,-3,-5,-15,-44,-2,14363
-1.2399,-0.409563,-2.71905,33.5,-93.4375,77.5,-0.174805,0.240234,1.11426,-8,-8,-6,-2,5,6,-28,-2,14381
-1.2399,-0.409563,-2.71905,33.5,-93.4375,77.5,-0.174805,0.240234,1.11426,0,5,0,6,-10,-3,20,-2,14397
-1.19254,-0.364374,-2.65321,55,-84.25,72.75,-0.323242,0.097168,0.690918,-2,-3,-12,-8,-2,8,6,-25,14414
-1.19254,-0.364374,-2.65321,55,-84.25,72.75,-0.323242,0.097168,0.690918,0,19,-5,6,11,9,-5,-7,14431
-1.17542,-0.340933,-2.62032,55.6875,-77.875,68.6875,-0.416504,-0.0517578,0.466309,7,4,-4,-8,-5,-10,1,13,14449
-1.17542,-0.340933,-2.62032,55.6875,-77.875,68.6875,-0.416504,-0.0517578,0.466309,2,-19,0,-2,-6,8,65,15,14467
-1.16183,-0.297688,-2.57918,25.0625,-27.1875,24.0625,-0.55957,-0.393066,0.0927734,-2,-7,-9,-10,-5,-10,19,3,14484
-1.16183,-0.297688,-2.57918,25.0625,-27.1875,24.0625,-0.55957,-0.393066,0.0927734,-1,27,-5,-11,-6,-4,2,-6,14501
-1.16183,-0.297688,-2.57918,25.0625,-27.1875,24.0625,-0.55957,-0.393066,0.0927734,3,10,-16,11,-3,-6,32,-12,14519
-1.16183,-0.297688,-2.57918,25.0625,-27.1875,24.0625,-0.55957,-0.393066,0.0927734,6,11,58,111,23,5,5,22,14537
-1.16183,-0.297688,-2.57918,25.0625,-27.1875,24.0625,-0.55957,-0.393066,0.0927734,-12,-36,35,-100,-19,-14,-21,-3,14554
-1.10653,-0.349977,-2.69656,-12.25,15.5,-113.875,0.379395,1.17236,2.05078,6,-11,-33,-109,16,14,19,-6,14628
-1.10653,-0.349977,-2.69656,-12.25,15.5,-113.875,0.379395,1.17236,2.05078,3,-4,-78,-57,-4,16,-8,-16,14645
-1.18686,-0.396492,-2.75256,-185.5,49.875,-83.625,1.57568,1.48877,2.21973,3,-2,-48,33,-3,-23,-7,3,14662
-1.22204,-0.416895,-2.7906,-144.188,72.6875,-90.6875,1.604,1.27783,2.01709,20,35,49,-11,9,18,-35,-9,14679
-1.22204,-0.416895,-2.7906,-144.188,72.6875,-90.6875,1.604,1.27783,2.01709,-3,-12,-25,-11,10,17,-30,-9,14696
-1.2467,-0.452828,-2.88098,-79.8125,96.5625,-86.375,1.229,0.878418,1.44873,-2,15,-19,44,29,16,-17,-22,14713
-1.2467,-0.452828,-2.88098,-79.8125,96.5625,-86.375,1.229,0.878418,1.44873,-4,-12,-20,-7,4,-9,-42,-18,14730
-1.25356,-0.469274,-2.92237,-72.6875,85.75,-78.125,0.972168,0.583496,1.0542,-14,-11,15,4,-3,3,-24,-22,14747
-1.25356,-0.469274,-2.92237,-72.6875,85.75,-78.125,0.972168,0.583496,1.0542,-2,18,124,61,3,2,43,16,14764
-1.22643,-0.526213,-3.00432,-49,50.5625,-64.1875,0.420898,0.269043,0.486816,0,-5,-12,25,2,1,-29,15,14780
-1.22066,-0.548982,-3.02492,-23.25,29.125,-51.8125,0.409668,0.111816,0.134766,2,-10,-69,3,-27,-67,1,2,14798
-1.22066,-0.548982,-3.02492,-23.25,29.125,-51.8125,0.409668,0.111816,0.134766,-8,-15,-17,11,4,0,20,5,14815
-1.22066,-0.548982,-3.02492,-23.25,29.125,-51.8125,0.409668,0.111816,0.134766,-4,4,-5,8,12,17,23,5,14832
-1.2298,-0.589387,-3.04322,-17.3125,10.6875,-36.3125,0.313965,0.0288086,-0.263672,7,14,82,109,26,-6,-69,26,14850
-1.24495,-0.606495,-3.04128,-20.375,0.625,-26.25,0.314941,0.0444336,-0.391602,-19,-11,1,-9,-2,-14,-28,-19,14867
-1.24495,-0.606495,-3.04128,-20.375,0.625,-26.25,0.314941,0.0444336,-0.391602,15,28,-14,-18,-7,7,-4,12,14884
-1.32501,-0.637862,-2.9601,28.875,-34.625,78.625,0.818359,0.329102,0.0541992,4,24,86,-49,-13,-4,9,-5,14960
-1.32225,-0.611071,-2.93511,39.3125,-40.3125,107.625,1.01953,0.516602,0.604004,-67,5,-34,-54,-35,-31,-8,8,14977
-1.32225,-0.611071,-2.93511,39.3125,-40.3125,107.625,1.01953,0.516602,0.604004,45,42,-4,-16,-39,4,2,-51,14994
-1.32124,-0.573339,-2.89506,67.4375,-65.625,128.375,1.10547,0.84668,1.52246,5,50,89,35,10,0,17,38,15011
-1.32124,-0.573339,-2.89506,67.4375,-65.625,128.375,1.10547,0.84668,1.52246,-1,-30,3,53,6,-40,-9,31,15027
-1.30845,-0.498431,-2.78398,111,-107.438,137.625,1.2832,0.612305,2.24609,-11,-14,17,9,-22,-16,-20,8,15045
-1.29543,-0.469,-2.73378,104.188,-100.5,115,1.38623,0.508301,1.98926,-15,-19,10,-18,6,-1,31,-3,15062
-1.29543,-0.469,-2.73378,104.188,-100.5,115,1.38623,0.508301,1.98926,14,18,-5,-30,-24,-10,-56,17,15080
-1.30368,-0.426508,-2.66427,18.6875,-67.625,73.625,0.762695,0.260254,1.75928,-35,-32,-54,-8,-64,-1,-34,7,15097
-1.30368,-0.426508,-2.66427,18.6875,-67.625,73.625,0.762695,0.260254,1.75928,127,81,23,-81,-1,37,25,27,15115
-1.30341,-0.410885,-2.63056,40,-73.375,66.3125,0.374023,0.296387,1.51855,42,-37,1,-12,-1,-4,13,14,15132
-1.30341,-0.410885,-2.63056,40,-73.375,66.3125,0.374023,0.296387,1.51855,-11,-7,-23,2,5,16,15,-23,15149
-1.23141,-0.375281,-2.577,64.8125,-79.0625,82,-0.00634766,0.294922,1.00732,16,12,16,13,12,0,5,26,15166
-1.20421,-0.351533,-2.55024,52.625,-66.1875,84.5625,-0.120117,0.178711,0.800781,-55,-27,26,12,28,-5,-3,-18,15182
-1.20421,-0.351533,-2.55024,52.625,-66.1875,84.5625,-0.120117,0.178711,0.800781,-76,-19,-7,-10,-25,6,-21,-11,15199
-1.16575,-0.298859,-2.50449,43.8125,-38.4375,73.625,-0.312988,-0.0229492,0.360352,88,18,-29,-28,-7,0,16,29,15215
-1.14471,-0.223621,-2.4827,7.0625,16.3125,15.3125,-0.638184,-0.248535,0.0214844,43,2,2,7,-16,-2,18,-17,15289
-1.14532,-0.201614,-2.49405,-6.375,31.5,-8.6875,-0.80127,-0.263672,0.0751953,9,-20,9,-82,11,20,-31,-42,15307
-1.14532,-0.201614,-2.49405,-6.375,31.5,-8.6875,-0.80127,-0.263672,0.0751953,21,-7,-16,17,2,-7,-21,-22,15325
-1.13681,-0.182424,-2.54187,-12.375,49.0625,-71.75,-0.819336,-0.0249023,0.320313,-25,4,-69,-51,-9,1,-30,-3,15342
-1.13207,-0.201734,-2.57963,-21.75,66.25,-102.563,-0.560059,0.261719,0.789063,76,92,0,30,6,5,-48,-33,15359
-1.13207,-0.201734,-2.57963,-21.75,66.25,-102.563,-0.560059,0.261719,0.789063,19,-31,127,-84,11,-15,23,25,15376
-1.13207,-0.201734,-2.57963,-21.75,66.25,-102.563,-0.560059,0.261719,0.789063,21,14,68,12,-37,7,-36,27,15394
-1.12171,-0.259073,-2.67538,-19.375,93.5625,-140.438,0.466797,0.975586,2.07178,14,-13,-45,68,-9,24,17,-33,15411
-1.12671,-0.291789,-2.74443,-68.125,131.313,-166.875,1.21289,1.38574,2.66357,-57,-41,-26,14,-7,64,28,-3,15428
-1.12671,-0.291789,-2.74443,-68.125,131.313,-166.875,1.21289,1.38574,2.66357,-11,-2,-52,5,18,10,-29,16,15446
-1.1521,-0.369116,-2.92617,-132.75,193.313,-205.625,0.987305,1.23096,2.4585,34,-11,1,8,13,-5,51,16,15464
-1.16514,-0.402733,-3.02415,-143.313,199.813,-192.625,0.904297,0.993164,2.2124,-39,4,-28,-6,-98,-68,-97,-61,15481
-1.16514,-0.402733,-3.02415,-143.313,199.813,-192.625,0.904297,0.993164,2.2124,6,-37,2,-5,-24,-17,-63,-39,15498
-1.16514,-0.402733,-3.02415,-143.313,199.813,-192.625,0.904297,0.993164,2.2124,-19,-21,6,-30,-42,-32,-47,-89,15515
-1.18626,-0.460246,3.08338,-129.563,168.438,-147.313,0.766602,0.706055,1.6084,29,59,37,17,23,1,-6,-10,15532
-1.17957,-0.490319,3.00927,-94.375,138.688,-137.688,0.725098,0.337891,1.05566,-8,-10,-25,17,50,-31,55,66,15549
-1.14409,-0.56512,2.82634,-55.4375,94.3125,-82.1875,0.585449,0.132813,0.00683594,-32,-46,-27,-28,-27,-19,8,-81,15611
-1.13937,-0.613919,2.77623,-13,40.75,-33.875,0.670898,0.170898,-0.442383,99,75,28,-12,49,25,-69,11,15628
-1.13937,-0.613919,2.77623,-13,40.75,-33.875,0.670898,0.170898,-0.442383,-38,-16,-10,-1,24,-1,-32,-25,15646
-1.14763,-0.631674,2.77294,-5.25,24.6875,-5.5,0.736816,0.166504,-0.536621,7,13,8,0,-5,9,-3,38,15662
-1.15308,-0.649358,2.78041,13.625,2.75,17.375,0.896973,0.276855,-0.45752,79,33,7,-15,-29,4,63,37,15679
-1.16088,-0.661038,2.79627,13.4375,-14.375,41.75,0.879883,0.322754,-0.307129,106,89,33,-24,-59,0,99,64,15695
-1.16088,-0.661038,2.79627,13.4375,-14.375,41.75,0.879883,0.322754,-0.307129,13,-21,-9,19,3,0,-24,29,15712
-1.17006,-0.664803,2.82432,26,-37.25,68.3125,0.854004,0.244141,-0.172363,-56,-75,23,67,43,-10,-15,-33,15729
-1.17831,-0.664943,2.86126,30.75,-62.6875,87.5625,0.816895,0.341797,0.0527344,-7,46,26,20,-8,8,-24,-23,15746
-1.19655,-0.646479,2.91428,29.9375,-94.3125,110.75,0.924316,0.470703,0.62793,103,51,39,-71,-3,3,35,5,15763
-1.21838,-0.619917,2.99227,69.4375,-141.375,135.125,0.947754,0.731934,1.38184,-9,-7,37,-38,11,-4,-29,37,15781
-1.23286,-0.58855,3.0921,121.313,-191.188,163.938,0.898926,0.729004,1.9209,39,-11,-41,66,19,-18,-23,-28,15798
-1.24096,-0.557157,-3.0782,152.063,-227.563,174.25,0.906738,0.821777,2.30127,91,-117,-4,-56,-61,67,-128,-9,15815
-1.24937,-0.526714,-2.95916,152.063,-249.438,176,0.990723,0.944336,2.4834,-119,-105,23,14,-16,-25,-79,-16,15832
-1.24937,-0.526714,-2.95916,152.063,-249.438,176,0.990723,0.944336,2.4834,-32,25,8,67,15,-59,112,2,15849
-1.27002,-0.497654,-2.85278,90.0625,-227.75,160.688,1.0791,0.749512,2.52637,15,24,-58,-14,19,-8,125,29,15867
-1.30566,-0.431388,-2.59922,70.4375,-171.813,109.875,0.368164,0.759766,1.89111,26,4,12,18,6,12,-8,0,15927
-1.31745,-0.408602,-2.53212,44.625,-152.688,107.938,0.0512695,0.631836,1.49414,-11,-5,-4,-10,7,-3,-27,-1,15945
-1.32221,-0.382087,-2.47257,34.375,-141.563,110.938,-0.234863,0.361816,1.03662,15,27,19,-6,-8,-4,107,99,15963
-1.32141,-0.354486,-2.41949,45.0625,-124.5,105.625,-0.404297,0.121582,0.750977,-60,-45,-21,-1,4,0,-90,-42,15980
-1.31126,-0.328657,-2.36987,68.5,-116.438,96,-0.568848,0.00292969,0.546387,-6,-4,-3,-9,-19,3,-88,-10,15997
-1.2898,-0.296266,-2.33213,72.5,-92.0625,79.6875,-0.566406,-0.0556641,0.380371,-47,-3,11,51,18,-9,-83,-31,16015
-1.2898,-0.296266,-2.33213,72.5,-92.0625,79.6875,-0.566406,-0.0556641,0.380371,30,6,7,-3,-8,0,-17,-24,16032
-1.27308,-0.266366,-2.30689,51.3125,-60.875,56.8125,-0.68457,-0.0712891,0.294434,-81,-25,-16,-7,-17,-5,38,19,16049
-1.26408,-0.234371,-2.29696,24.1875,-19.625,36.8125,-0.872559,-0.192871,0.206055,-16,-22,-6,15,51,-9,-79,-49,16066
-1.25968,-0.206355,-2.30361,2.1875,19.4375,4.5625,-0.964355,-0.314453,0.189453,-12,26,18,8,12,5,42,-17,16083
-1.2544,-0.186471,-2.32618,-6.375,53.375,-34.5625,-1.00781,-0.323242,0.233887,-86,-2,30,93,12,-35,-63,31,16100
-1.24618,-0.176785,-2.3621,-12.4375,79.375,-71.875,-0.996582,-0.218262,0.322266,-28,-42,-3,21,8,11,27,-13,16117
-1.24568,-0.195399,-2.40728,-30,97.3125,-105.5,-0.869629,-0.0908203,0.47998,76,73,44,39,7,13,59,-22,16134
-1.24568,-0.195399,-2.40728,-30,97.3125,-105.5,-0.869629,-0.0908203,0.47998,-11,-29,25,22,34,15,16,-36,16152
-1.24768,-0.257447,-2.53034,-57.3125,142.625,-157.25,-0.308105,0.588867,1.64795,37,25,-15,-62,-63,3,44,27,16169
-1.24768,-0.257447,-2.53034,-57.3125,142.625,-157.25,-0.308105,0.588867,1.64795,31,-28,26,-35,-28,10,-62,-12,16187
-1.304,-0.443607,-2.89455,-186.125,205.938,-188.063,1.38184,1.40332,2.65674,29,-7,-47,-16,-26,-17,0,-7,16259
-1.304,-0.443607,-2.89455,-186.125,205.938,-188.063,1.38184,1.40332,2.65674,4,-108,38,75,62,7,59,-25,16277
-1.304,-0.443607,-2.89455,-186.125,205.938,-188.063,1.38184,1.40332,2.65674,65,-3,-14,-31,14,40,41,39,16294
-1.32326,-0.518256,-3.08631,-140.625,205.875,-156.125,1.06055,1.0459,1.90088,-42,9,-2,-10,-21,-2,43,46,16310
-1.32138,-0.545765,3.10999,-120.813,188.813,-129.063,0.821289,0.919922,1.49414,-78,45,16,-5,-30,12,80,25,16328
-1.32138,-0.545765,3.10999,-120.813,188.813,-129.063,0.821289,0.919922,1.49414,-10,-32,-10,33,22,0,-58,-25,16345
-1.29155,-0.592248,2.95825,-73.6875,146,-90.9375,0.618652,0.419434,0.577148,70,82,22,6,-19,-9,-27,39,16362
-1.2731,-0.608153,2.90058,-44.5,117.813,-72.3125,0.5,0.356934,0.222168,24,-10,-9,8,-16,-8,-26,-11,16379
-1.25855,-0.629627,2.85481,-35.1875,95.3125,-50.8125,0.567871,0.244141,-0.050293,1,10,-7,17,62,17,33,24,16396
-1.24951,-0.648194,2.82105,-21.8125,76.625,-39.375,0.539551,0.181152,-0.242188,-15,-42,-24,-6,1,-5,-35,-37,16413
-1.24951,-0.648194,2.82105,-21.8125,76.625,-39.375,0.539551,0.181152,-0.242188,57,0,-3,-4,-25,-11,-5,-23,16430
-1.24612,-0.666884,2.80042,-12.4375,51.5,-27.0625,0.576172,0.205078,-0.332031,-47,-16,1,49,-15,-17,-54,-2,16448
-1.24861,-0.682971,2.79314,-3.5,28.625,-8.1875,0.650879,0.178711,-0.385742,-73,-14,2,33,8,-14,-4,31,16464
-1.25658,-0.696816,2.79631,-1.875,9.8125,12.4375,0.754395,0.228027,-0.369141,15,10,9,41,34,-1,-25,18,16480
-1.26723,-0.706538,2.81095,4,-15.5,36.25,0.78125,0.311035,-0.254883,22,15,4,-22,-10,-3,-23,1,16497
-1.28244,-0.710916,2.84122,16.875,-47.125,59.9375,0.757324,0.316406,-0.182617,-13,-6,-3,0,21,9,46,59,16514
-1.3281,-0.688592,2.93405,8.4375,-93.4375,103.438,0.783203,0.360352,0.446289,-52,-17,31,-8,-8,-19,-1,-15,16575
-1.35897,-0.658031,3.0065,41.0625,-138.5,121.688,0.735352,0.526855,1.21094,48,13,75,-29,-26,2,35,-1,16592
-1.37879,-0.622038,3.10145,105.938,-193.125,144.938,0.802734,0.691406,1.75488,16,9,10,-30,-2,8,-2,-19,16608
-1.3888,-0.585884,-3.07536,144.188,-227.438,148.313,0.850586,0.773438,2.1333,32,-53,24,29,5,11,-89,1,16625
-1.3982,-0.543638,-2.96265,146.25,-247.563,167.188,0.848145,1.00146,2.52441,53,41,-9,-5,-3,8,-67,-9,16642
-1.41279,-0.497741,-2.85056,118.125,-253.5,175.563,0.884277,0.753418,2.36719,3,-26,18,40,16,-5,-43,-13,16659
-1.43177,-0.455582,-2.75312,73.5625,-227.688,156.25,0.82959,0.6875,2.37842,28,56,-41,-2,0,-29,123,31,16677
-1.44056,-0.421864,-2.66581,81.375,-211.625,126,0.695801,0.556152,2.23047,54,50,-35,-46,-5,17,20,-10,16695
-1.44056,-0.421864,-2.66581,81.375,-211.625,126,0.695801,0.556152,2.23047,-37,-59,-1,16,-8,4,-86,-29,16712
-1.43449,-0.396527,-2.59115,102.563,-185,98.1875,0.458496,0.70459,2.00244,21,-27,-15,-23,-12,13,-62,2,16728
-1.42944,-0.37162,-2.52685,83.4375,-159.5,94.3125,0.162109,0.726563,1.61768,-34,40,14,-66,-9,8,-58,-5,16745
-1.42944,-0.37162,-2.52685,83.4375,-159.5,94.3125,0.162109,0.726563,1.61768,13,26,21,35,27,-16,-15,-32,16763
-1.41281,-0.320591,-2.42601,55.3125,-120.438,87.6875,-0.191406,0.169922,0.930176,49,46,23,29,13,7,65,25,16780
-1.39916,-0.298101,-2.38238,66.3125,-111.938,75.6875,-0.461426,0.0727539,0.677246,-1,2,-15,-15,1,-15,9,3,16797
-1.39916,-0.298101,-2.38238,66.3125,-111.938,75.6875,-0.461426,0.0727539,0.677246,49,6,11,47,-13,6,-55,-2,16814
-1.37462,-0.266634,-2.34735,72.375,-93.1875,64.8125,-0.612793,-0.0366211,0.415039,6,4,-4,-41,3,2,-55,38,16830
-1.3415,-0.155696,-2.31251,7.6875,19.875,-16.5625,-0.968262,-0.330078,0.214355,-43,-33,-35,-36,-13,-12,-30,-6,16904
-1.33145,-0.144785,-2.33908,-2.6875,62.5625,-49.5,-0.923828,-0.140625,0.325195,-19,5,-10,-45,3,-8,-10,16,16921
-1.33145,-0.144785,-2.33908,-2.6875,62.5625,-49.5,-0.923828,-0.140625,0.325195,-16,-27,-37,-5,6,-3,-93,-81,16938
-1.3224,-0.141313,-2.37679,-26.3125,86.875,-70.625,-0.822266,-0.081543,0.5625,-53,-37,19,84,-4,-8,23,34,16955
-1.32149,-0.159262,-2.42469,-33.625,114.063,-92.375,-0.586426,0.0786133,0.902344,18,-19,72,-91,-12,-3,-67,-54,16973
-1.32516,-0.188569,-2.47918,-37.4375,128.563,-118.938,-0.337891,0.561035,1.68604,101,26,62,-10,-18,18,2,6,16989
-1.32516,-0.188569,-2.47918,-37.4375,128.563,-118.938,-0.337891,0.561035,1.68604,-25,-5,-88,-44,-16,0,83,-32,17006
-1.3371,-0.274635,-2.62096,-94,185.875,-183.25,1.26855,1.33838,2.63623,-110,-20,-26,9,-13,-5,-48,-33,17024
-1.3631,-0.322516,-2.70897,-148.75,205.625,-186.688,1.42432,1.40332,2.74658,42,-49,-33,35,12,-9,-46,-38,17041
-1.3631,-0.322516,-2.70897,-148.75,205.625,-186.688,1.42432,1.40332,2.74658,92,127,39,47,44,-24,-4,59,17058
-1.42397,-0.423814,-2.88805,-178.938,208.25,-185.688,1.02051,0.997559,2.22021,38,-128,19,-14,-14,24,123,40,17075
-1.42397,-0.423814,-2.88805,-178.938,208.25,-185.688,1.02051,0.997559,2.22021,-57,17,23,-33,-28,31,-62,-33,17092
-1.4418,-0.473023,-2.96867,-151.188,186.938,-168.375,0.878906,1.17432,1.9751,-14,79,29,4,14,-7,-4,25,17110
-1.45667,-0.512469,-3.03855,-137.5,161.625,-133.875,0.924316,0.958496,1.40234,-14,5,-28,-6,0,-19,43,25,17127
-1.45615,-0.553474,-3.10572,-110.5,144.75,-116.938,0.876465,0.584473,0.939941,32,-1,-24,15,4,13,28,-7,17144
-1.44826,-0.589006,3.12153,-71.375,118.688,-102.688,0.686523,0.467285,0.47168,-35,-36,-14,-14,-65,-28,-94,-54,17162
-1.45933,-0.706506,3.01457,-17.3125,28,-15.9375,0.563965,0.183105,-0.391602,33,22,6,-6,-61,-8,33,25,17240
-1.47231,-0.72075,3.02077,-0.6875,8.375,1.5,0.654785,0.150391,-0.497559,-14,-1,8,-5,-35,0,6,16,17257
-1.48826,-0.732904,3.03336,-0.6875,-7.0625,13.5,0.665527,0.253906,-0.430664,5,4,6,-5,-1,8,40,16,17275
-1.48826,-0.732904,3.03336,-0.6875,-7.0625,13.5,0.665527,0.253906,-0.430664,-36,-34,-15,9,-3,-1,2,-7,17292
-1.50325,-0.738804,3.05346,5.125,-31.4375,37.625,0.720215,0.308105,-0.216797,-34,35,17,9,-18,-4,4,4,17309
-1.52045,-0.736891,3.08752,22.625,-62.5625,66.9375,0.823242,0.320313,-0.148926,-19,5,19,27,-18,-3,-42,10,17326
-1.53486,-0.730158,3.12359,25.125,-76,82.625,0.900391,0.293457,0.0244141,0,8,-43,19,7,-10,-82,3,17343
-1.53486,-0.730158,3.12359,25.125,-76,82.625,0.900391,0.293457,0.0244141,-37,-24,-4,35,44,3,5,-22,17360
-1.54808,-0.705276,-3.11481,38.3125,-101,90.875,0.896484,0.470215,0.591797,51,20,-45,-88,10,3,47,-1,17377
-1.55976,-0.665791,-3.0547,75.625,-131.625,115.188,0.895508,0.732422,1.35352,25,38,23,37,11,11,27,3,17394
-1.56356,-0.61705,-2.97621,124,-179,141.313,0.95166,0.78125,1.82324,45,-79,69,14,1,22,-125,-13,17411
-1.56195,-0.56593,-2.8913,140.375,-200.938,148.188,0.879395,0.812012,2.26025,-106,-22,-31,-49,8,-23,90,-19,17428
-1.55813,-0.513002,-2.79949,145.875,-224.313,153.938,0.937012,0.871094,2.47119,3,75,-42,35,-5,-32,127,-14,17446
-1.55777,-0.464554,-2.71563,113.813,-210.25,141.438,1.03223,0.588379,2.33398,63,38,-26,-23,-8,-9,87,16,17464
-1.55824,-0.428392,-2.64532,85.875,-180.875,105.938,0.87793,0.588379,2.29004,26,8,-3,-23,-22,9,43,-31,17482
-1.5559,-0.399439,-2.5841,77.0625,-159.375,85.0625,0.628418,0.544434,2.08691,19,-19,3,-3,-11,18,25,-3,17500
-1.53522,-0.311931,-2.44665,53.3125,-108.25,89.5,-0.124512,0.277832,1.11719,-2,4,-2,-4,0,-6,-18,0,17565
-1.5038,-0.275687,-2.4158,60.75,-96.8125,90.1875,-0.291504,0.132324,0.833008,25,-4,-3,10,19,-3,-2,1,17583
-1.47576,-0.238142,-2.38751,61.1875,-82,87.875,-0.395996,0.0664063,0.600098,39,22,8,-2,-10,3,15,7,17600
-1.45423,-0.198999,-2.36323,51.6875,-65.375,82.625,-0.516602,-0.0830078,0.392578,-18,-29,-2,0,7,-4,-64,1,17618
-1.44036,-0.159449,-2.34474,35.3125,-46.75,68.125,-0.70752,-0.253906,0.246582,-30,10,4,1,13,0,-13,-5,17635
-1.44036,-0.159449,-2.34474,35.3125,-46.75,68.125,-0.70752,-0.253906,0.246582,4,4,-7,-30,-16,7,11,12,17652
-1.43069,-0.123806,-2.33391,22.5,-26.3125,42.875,-0.876953,-0.324219,0.188965,76,27,9,-12,-19,1,-14,-26,17669
-1.42969,-0.0977454,-2.33371,-2.875,0.3125,11.4375,-0.877441,-0.379395,0.144531,-41,-37,-15,-29,-15,-1,-5,1,17686
-1.43049,-0.0810024,-2.34491,-15.125,28.1875,-22.5,-0.927246,-0.381348,0.187988,-17,22,-2,-40,-22,4,-35,-22,17703
-1.43133,-0.0757779,-2.36452,-25.8125,47.375,-55,-0.895508,-0.242188,0.304688,22,19,14,-4,-4,0,-36,21,17720
-1.43193,-0.0839831,-2.39326,-40,68.3125,-85.625,-0.747559,-0.0761719,0.465332,-71,-61,-32,9,-4,1,53,-6,17737
-1.44156,-0.116606,-2.43152,-53.125,93.1875,-114.875,-0.474609,0.132324,0.835938,-15,-15,-2,-11,1,-12,-31,-23,17754
-1.44156,-0.116606,-2.43152,-53.125,93.1875,-114.875,-0.474609,0.132324,0.835938,43,82,24,71,-4,-10,-8,-4,17772
-1.45534,-0.159117,-2.47896,-58.125,118.813,-137.25,-0.260742,0.632813,1.5957,-9,-8,62,9,6,-1,28,19,17789
-1.47104,-0.207153,-2.53053,-71.875,129.563,-152.5,0.225586,1.06689,2.27637,14,-13,-101,-7,1,6,29,-13,17806
-1.50231,-0.260229,-2.59087,-129.438,154.75,-165.75,1.17432,1.49414,2.84521,-32,19,-12,-15,-5,4,40,27,17823
-1.59653,-0.435767,-2.79631,-150.813,196.813,-170.188,1.12109,1.1001,2.05469,-2,-7,4,-2,16,4,14,5,17885
-1.61945,-0.489964,-2.86794,-157.375,189.563,-148.313,0.872559,0.935059,1.75391,-3,34,-5,-6,-7,-7,36,37,17903
-1.63059,-0.536189,-2.93298,-123.375,169.375,-123.5,0.73584,0.814941,1.43408,-70,-31,-7,12,-3,-15,-65,-63,17920
-1.63059,-0.536189,-2.93298,-123.375,169.375,-123.5,0.73584,0.814941,1.43408,8,-8,5,15,17,1,66,32,17937
-1.61418,-0.617224,-3.04428,-61.875,121.813,-85.0625,0.765137,0.415039,0.467773,7,-4,-7,-2,23,0,16,5,17954
-1.61418,-0.617224,-3.04428,-61.875,121.813,-85.0625,0.765137,0.415039,0.467773,-4,-2,0,-19,-28,2,-59,-20,17971
-1.60428,-0.644773,-3.08793,-46.375,102.75,-63.875,0.544922,0.319336,0.0947266,-13,0,-4,10,11,1,-38,-17,17987
-1.60023,-0.676086,-3.12375,-44.5,87.9375,-45.8125,0.566895,0.258789,-0.109375,9,-1,4,23,24,0,-6,1,18005
-1.60131,-0.701992,3.13216,-39.9375,71.9375,-33.375,0.577148,0.198242,-0.229004,-14,-5,1,3,-32,-5,34,45,18022
-1.60746,-0.721207,3.11933,-22.1875,45.0625,-14.9375,0.587402,0.189453,-0.360352,51,21,1,5,4,-3,32,8,18039
-1.60746,-0.721207,3.11933,-22.1875,45.0625,-14.9375,0.587402,0.189453,-0.360352,-12,-22,-14,7,24,0,-31,-19,18057
-1.63848,-0.741863,3.13193,-8.5625,-5.75,26.4375,0.681641,0.30957,-0.382813,-48,-21,-8,-9,-2,-1,21,-13,18074
-1.63848,-0.741863,3.13193,-8.5625,-5.75,26.4375,0.681641,0.30957,-0.382813,-28,0,7,22,29,2,12,0,18091
-1.65828,-0.739245,-3.12974,-2.4375,-38.125,55.75,0.709473,0.342773,-0.236328,-87,-41,-21,-34,-7,-9,-8,-12,18108
-1.68108,-0.726469,-3.09638,9.4375,-69.6875,84.5,0.819336,0.277832,-0.195313,-48,-34,-33,-43,-19,3,6,-28,18125
-1.69693,-0.692878,-3.06413,15,-83.125,102.625,0.901367,0.304199,0.0351563,34,4,-42,-17,-11,0,-30,-1,18142
-1.69908,-0.533347,-2.89904,129.875,-193.188,161.75,0.981934,0.714844,1.88135,58,-28,9,-17,-14,13,-68,3,18210
-1.677,-0.466429,-2.82422,166.063,-209.75,168.75,0.947266,0.848633,2.42236,13,-12,65,-30,-14,17,-89,-9,18228
-1.64925,-0.3992,-2.74087,179.688,-233.875,171.5,0.960938,0.879395,2.4624,-12,21,-24,-33,-19,-11,115,21,18245
-1.62617,-0.34082,-2.66635,143.813,-210.063,153.875,0.978027,0.669922,2.31152,33,47,-18,50,23,-12,65,48,18262
-1.60878,-0.296155,-2.6021,107.313,-180.688,119.438,0.827637,0.594238,2.18213,54,7,-23,46,32,-7,0,-22,18279
-1.60878,-0.296155,-2.6021,107.313,-180.688,119.438,0.827637,0.594238,2.18213,14,-21,12,10,24,15,-3,1,18296
-1.59388,-0.261357,-2.5451,87.25,-160.063,94.9375,0.517578,0.572754,1.96094,-13,-30,-18,-20,-12,2,-57,7,18313
-1.58031,-0.229505,-2.49455,74.375,-142,88.9375,0.269043,0.556641,1.67041,-40,8,13,21,-5,13,38,4,18331
-1.56073,-0.198598,-2.45091,59.1875,-127.375,89.8125,0.0112305,0.460449,1.38867,-40,-16,-18,-40,-18,-4,-5,-17,18349
-1.56073,-0.198598,-2.45091,59.1875,-127.375,89.8125,0.0112305,0.460449,1.38867,40,-5,-8,-7,-20,0,34,-6,18365
-1.52156,-0.136101,-2.37349,62.625,-103.25,87.125,-0.291504,0.103516,0.785156,-7,-4,-12,-3,32,6,27,42,18383
-1.49169,-0.101545,-2.34352,62.5,-84.0625,80.9375,-0.335449,0.0185547,0.494629,-28,-3,-17,-12,-2,-4,-31,-12,18400
-1.49169,-0.101545,-2.34352,62.5,-84.0625,80.9375,-0.335449,0.0185547,0.494629,-35,-36,-4,3,-29,-4,-1,-28,18417
-1.45416,-0.0366496,-2.3113,29.0625,-28.375,52.25,-0.604492,-0.181641,0.246094,13,4,3,4,22,-1,-17,-8,18434
-1.45416,-0.0366496,-2.3113,29.0625,-28.375,52.25,-0.604492,-0.181641,0.246094,33,-1,-1,-10,10,-1,18,15,18451
-1.44423,-0.00666146,-2.3077,18.5625,-6.875,31.1875,-0.800781,-0.30127,0.185547,33,-1,-1,-10,10,-1,18,15,18468
-1.43754,0.0311885,-2.33651,-5.9375,55.3125,-30.3125,-0.905273,-0.249023,0.231934,-62,-26,5,16,-6,8,31,10,18530
-1.42656,0.0253544,-2.39741,-17.5,84.1875,-86.375,-0.69873,-0.125977,0.662109,-33,-97,45,-48,2,-3,13,-21,18547
-1.42731,-0.00791874,-2.43638,-22,96.0625,-117.125,-0.428711,0.233887,1.19385,-8,10,-34,-47,-4,-4,17,2,18564
-1.43725,-0.0516382,-2.47592,-32.0625,95,-139.75,-0.0424805,0.751953,1.98047,34,59,34,30,-2,6,25,-9,18581
-1.45972,-0.10526,-2.52505,-75.5625,120.5,-169.5,0.745605,0.993652,2.42969,18,20,66,-42,-28,-4,-5,28,18598
-1.49833,-0.16796,-2.58233,-132.875,145.5,-194.063,1.39111,1.37158,2.93555,-22,-23,-52,16,25,4,33,-37,18615
-1.49833,-0.16796,-2.58233,-132.875,145.5,-194.063,1.39111,1.37158,2.93555,22,38,-44,75,-3,3,-23,7,18632
-1.54804,-0.227343,-2.63857,-174.063,149.875,-177.625,1.75098,1.48193,2.53076,-44,47,-28,-18,-4,10,0,11,18649
-1.59528,-0.285427,-2.70109,-181.063,173.75,-166.5,1.45703,1.0918,2.10938,9,-21,-25,4,25,-20,34,3,18666
-1.62588,-0.341141,-2.76642,-145.438,184.375,-152.625,1.24561,0.933105,1.82764,-25,-3,10,-4,-18,-5,-34,-21,18684
-1.64852,-0.392085,-2.83098,-131,182,-134.063,1.03564,0.800781,1.41016,-38,0,-13,-19,-31,1,49,22,18701
-1.66701,-0.43394,-2.8908,-121.75,166.875,-105.625,0.793945,0.703125,1.08594,25,33,24,21,-11,-2,-32,8,18718
-1.66701,-0.43394,-2.8908,-121.75,166.875,-105.625,0.793945,0.703125,1.08594,-3,5,0,-2,2,-11,-24,2,18736
-1.67513,-0.474237,-2.94337,-99.4375,139.938,-85.875,0.756348,0.486328,0.712891,6,-12,-9,9,17,-9,-3,-3,18752
-1.68151,-0.507523,-2.98569,-80.625,112.5,-70.3125,0.61377,0.456543,0.398926,15,18,-10,-8,6,3,0,-3,18769
-1.68429,-0.544729,-3.0189,-57.75,87,-49.3125,0.581055,0.376465,0.0913086,0,0,-13,3,-11,0,30,26,18785
-1.71747,-0.635111,-3.06593,17.625,25.25,15,0.849121,0.310059,-0.633301,-40,19,3,-6,-5,12,25,-10,18859
-1.71747,-0.635111,-3.06593,17.625,25.25,15,0.849121,0.310059,-0.633301,12,-4,-2,5,6,-16,-56,-15,18876
-1.72085,-0.645097,-3.06178,28.8125,9.5,32.3125,0.813965,0.433594,-0.52002,-8,2,-5,-18,25,4,-5,13,18893
-1.72394,-0.641419,-3.05049,33.125,-18.8125,62.4375,0.726074,0.391113,-0.354004,-1,-14,0,0,10,4,-2,-10,18910
-1.72394,-0.641419,-3.05049,33.125,-18.8125,62.4375,0.726074,0.391113,-0.354004,48,26,4,-11,5,9,34,44,18927
-1.72869,-0.624117,-3.0303,26.5,-57.625,92.875,0.734375,0.246094,-0.0712891,-6,-8,-59,-21,-9,7,-33,12,18945
-1.74353,-0.529044,-2.94536,61.75,-149.938,129.75,0.939941,0.413086,1.17432,16,-2,18,22,15,7,44,11,18962
-1.74353,-0.529044,-2.94536,61.75,-149.938,129.75,0.939941,0.413086,1.17432,-9,-22,10,-19,17,14,-55,2,18979
-1.73122,-0.470632,-2.88006,125,-189.75,137.938,1.08301,0.680664,1.74121,-70,-35,-22,-30,-14,-5,-81,-41,18996
-1.71592,-0.413156,-2.80566,134.875,-215.75,133.188,0.850098,0.604004,2.20605,-49,1,8,62,19,-25,8,-18,19013
-1.69738,-0.353973,-2.72646,138.125,-231.688,139.563,0.796875,0.786133,2.54785,-20,-10,-27,21,-13,-36,55,-23,19030
-1.68668,-0.297761,-2.64542,104.813,-238,133.5,0.991699,0.590332,2.33008,62,34,-76,55,11,-7,65,-15,19048
-1.68668,-0.297761,-2.64542,104.813,-238,133.5,0.991699,0.590332,2.33008,24,3,35,-33,-7,27,-89,-23,19065
-1.67688,-0.215489,-2.52333,49.0625,-166.75,85.875,0.671387,0.625977,2.18213,-7,-34,34,-6,-15,17,-48,-28,19083
-1.66277,-0.185442,-2.47508,67.9375,-143.438,72.5,0.374023,0.56543,1.89063,-74,-16,2,-13,-6,-3,-10,-3,19100
-1.64391,-0.159616,-2.43652,72.875,-114.75,64.625,0.223145,0.531738,1.49365,5,3,0,-4,3,-7,3,16,19116
-1.53933,-0.0655709,-2.37488,54.8125,-51.125,76.1875,-0.436035,0.0888672,0.630859,-56,-5,-16,-20,-11,-4,-20,-13,19190
-1.50854,-0.0284746,-2.36432,63.875,-28.25,68,-0.571289,-0.0673828,0.382324,16,-1,0,3,3,2,3,-9,19207
-1.48388,0.0114827,-2.36313,60.875,1.1875,61.6875,-0.770508,-0.183594,0.157715,18,0,-11,-15,-6,4,35,12,19223
-1.47067,0.0502142,-2.37179,37.8125,29.375,49.6875,-0.862305,-0.286133,0.0390625,41,-7,12,40,19,-6,7,22,19240
-1.47067,0.0502142,-2.37179,37.8125,29.375,49.6875,-0.862305,-0.286133,0.0390625,12,6,12,-2,-9,4,4,6,19257
-1.46867,0.0787071,-2.38866,7.3125,50.9375,21.75,-0.821777,-0.414063,0.0546875,-37,0,5,9,5,-1,11,-3,19274
-1.46796,0.0913528,-2.41032,0.375,60.6875,-18.5,-0.748047,-0.494629,0.140137,52,42,14,-22,-9,-8,-17,30,19291
-1.4609,0.09119,-2.43485,10.25,66,-57,-0.747559,-0.364746,0.270996,28,17,-12,4,-2,0,39,24,19308
-1.4561,0.0785594,-2.45953,-3.3125,62.6875,-90.625,-0.69873,-0.203125,0.355957,-16,-15,-62,-40,-12,-4,5,-19,19324
-1.46524,0.0396029,-2.48658,-36.8125,64.625,-126.625,-0.437012,0.100586,0.855957,-21,-24,19,2,21,5,-6,-4,19342
-1.48185,-0.00835282,-2.52041,-45.875,82.8125,-146.375,-0.0766602,0.779785,1.76025,23,-11,74,56,6,6,5,-24,19360
-1.48185,-0.00835282,-2.52041,-45.875,82.8125,-146.375,-0.0766602,0.779785,1.76025,-30,-8,104,-89,4,8,9,8,19377
-1.51359,-0.0631089,-2.55957,-95.0625,100.875,-164.688,0.496094,1.05225,2.23291,-5,-52,-83,-75,-31,-6,-17,-25,19394
-1.51359,-0.0631089,-2.55957,-95.0625,100.875,-164.688,0.496094,1.05225,2.23291,8,34,-24,-3,9,0,-24,-13,19411
-1.5627,-0.127278,-2.60936,-154.188,135.813,-188.313,0.976563,1.37402,2.85645,48,9,6,74,8,4,-19,-8,19428
-1.65831,-0.260164,-2.70566,-175.438,152.375,-177.688,1.46973,1.21826,2.35498,23,-13,9,33,-4,-3,-20,5,19445
-1.76344,-0.420646,-2.84957,-122.313,138.75,-102.438,0.853027,0.768555,1.12158,-2,0,13,7,20,4,-8,11,19511
-1.7725,-0.466768,-2.88873,-83.375,117.5,-94.5625,0.736816,0.514648,0.739258,-4,14,-2,-21,7,4,20,3,19527
-1.7703,-0.523035,-2.92222,-58,93.3125,-86.1875,0.655273,0.476074,0.429199,-30,-8,12,-12,-21,9,-37,23,19545
-1.77459,-0.567532,-2.94529,-47.3125,71.25,-68.625,0.529297,0.396484,0.105957,-34,-18,9,8,22,-1,-32,30,19561
-1.77459,-0.567532,-2.94529,-47.3125,71.25,-68.625,0.529297,0.396484,0.105957,-10,-2,2,9,-9,-5,13,-3,19578
-1.78494,-0.601289,-2.96167,-45.8125,56.5,-47.5,0.453125,0.369629,-0.0917969,1,12,4,18,2,5,3,-7,19595
-1.80015,-0.6293,-2.97252,-43.6875,46.25,-32.8125,0.513672,0.294434,-0.251465,7,-12,-5,29,8,-1,62,-18,19613
-1.80015,-0.6293,-2.97252,-43.6875,46.25,-32.8125,0.513672,0.294434,-0.251465,5,2,-6,-18,-8,5,35,13,19630
-1.82275,-0.669967,-2.97435,8.25,18.4375,-10.375,0.633301,0.188965,-0.48584,4,-1,4,9,-18,-9,-22,-10,19647
-1.82821,-0.68276,-2.96785,23.375,6.375,5.25,0.60498,0.29834,-0.447754,-3,13,-6,-45,-19,4,-39,23,19665
-1.83577,-0.685998,-2.95681,19.6875,-15.4375,30.375,0.549316,0.390625,-0.314453,11,-7,4,2,9,6,11,21,19682
-1.845,-0.673949,-2.94012,14.1875,-48.4375,67.875,0.633789,0.271973,-0.133789,-30,6,21,34,5,-3,-29,-22,19700
-1.84991,-0.653353,-2.91853,20.4375,-79.5625,91.625,0.777832,0.168457,0.108887,-5,-28,25,31,1,1,1,-4,19717
-1.84991,-0.653353,-2.91853,20.4375,-79.5625,91.625,0.777832,0.168457,0.108887,-39,-20,28,79,24,-16,22,-38,19734
-1.84668,-0.612461,-2.89085,47.375,-105.313,110.438,0.814453,0.458008,0.780762,-14,-24,-60,-45,-32,-9,-13,-23,19751
-1.83197,-0.555085,-2.84509,114.25,-148.688,129.5,0.92041,0.897461,1.52246,24,23,31,22,-2,9,-62,13,19767
-1.77662,-0.354308,-2.67369,133.188,-195.563,137.063,0.996582,0.509277,2.38086,46,37,-66,-10,-5,3,21,-17,19843
-1.74872,-0.306897,-2.61757,132.063,-175.25,104.125,0.891602,0.5,2.24219,4,-17,-17,-1,1,7,22,-18,19860
-1.72976,-0.267977,-2.56826,94.1875,-152.625,87.125,0.802246,0.591309,2.08691,0,-23,-6,2,-5,4,-99,-26,19877
-1.72127,-0.231923,-2.52256,56.625,-141.25,82.6875,0.416504,0.514648,1.83838,-48,-22,10,15,-30,5,-77,-8,19894
-1.71216,-0.194605,-2.48106,51.3125,-130.688,88.625,0.0820313,0.42334,1.51953,13,2,-25,-7,10,-4,-54,9,19910
-1.69271,-0.156605,-2.4468,54.0625,-113.188,93.8125,-0.115234,0.290527,1.15771,7,6,11,17,1,-13,26,9,19926
-1.65479,-0.114844,-2.41934,59.5625,-96.625,97.375,-0.205566,0.165039,0.901367,8,20,-9,-8,2,-6,14,1,19944
-1.65479,-0.114844,-2.41934,59.5625,-96.625,97.375,-0.205566,0.165039,0.901367,30,41,7,18,40,-1,41,35,19960
-1.58629,-0.0363627,-2.36905,59.875,-77,78.625,-0.353027,-0.0205078,0.556641,5,-6,-5,-8,8,1,-8,-1,19978
-1.58629,-0.0363627,-2.36905,59.875,-77,78.625,-0.353027,-0.0205078,0.556641,1,-12,-5,-2,-5,10,-17,-12,19994
-1.5608,-0.00651784,-2.34985,47.125,-55.6875,62,-0.334473,-0.144531,0.39502,0,-4,1,1,-7,-3,15,5,20011
-1.54488,0.0170443,-2.34112,26.5,-24.375,32.3125,-0.518555,-0.250977,0.286133,-4,-12,-3,-4,-12,-1,-26,1,20028
-1.53959,0.034452,-2.34427,-2.0625,9.4375,-1.1875,-0.741699,-0.351563,0.258789,-19,6,-1,-9,-15,-2,-10,-8,20045
-1.54047,0.0407144,-2.35459,-23.8125,29.0625,-46,-0.927246,-0.489746,0.330078,2,0,-8,2,-3,-13,31,-1,20061
-1.54047,0.0407144,-2.35459,-23.8125,29.0625,-46,-0.927246,-0.489746,0.330078,1,95,7,3,39,-11,21,37,20078
-1.54651,0.0324335,-2.37161,-40.75,46.875,-92.1875,-0.987305,-0.400391,0.367676,9,-120,10,-1,86,8,5,29,20095
-1.69525,-0.177997,-2.54011,-138.625,152.5,-163.438,-0.277344,0.625488,2.29004,-16,-2,-36,-27,-15,4,-37,-17,20165
-1.70523,-0.228213,-2.58405,-54.125,141,-126.938,0.196777,1.03809,2.62158,3,-5,43,3,-8,9,0,-9,20182
-1.70523,-0.228213,-2.58405,-54.125,141,-126.938,0.196777,1.03809,2.62158,-14,4,-56,6,-22,-19,0,-16,20200
-1.72751,-0.282285,-2.63415,-100.125,159.688,-133.188,1.13086,1.29053,2.81592,0,-10,18,-8,-21,-9,-20,-4,20217
-1.75176,-0.334475,-2.67753,-107.438,142.25,-127.5,1.66748,1.65283,2.64258,-4,-14,-6,15,-27,-8,-12,-2,20234
-1.78545,-0.390421,-2.72703,-146.875,161.625,-131.25,1.49756,1.24219,2.22021,2,-2,-4,-6,-9,-8,-2,3,20251
-1.80572,-0.443337,-2.78015,-119.938,169.625,-116.938,1.09717,0.922363,1.88379,-1,-6,5,12,-9,-15,11,-2,20268
-1.81432,-0.495058,-2.8286,-87,155.313,-114.438,0.824707,0.78418,1.50439,-10,-37,12,-2,-24,-38,-12,-10,20285
-1.80731,-0.546993,-2.87501,-58.9375,135.75,-101.313,0.702148,0.601563,1.0625,-8,-3,8,5,2,18,-25,-8,20301
-1.80731,-0.546993,-2.87501,-58.9375,135.75,-101.313,0.702148,0.601563,1.0625,1,-14,7,6,-3,1,-12,-3,20317
-1.79181,-0.588504,-2.9167,-28.625,116.563,-79.875,0.633789,0.436035,0.716309,3,18,-7,2,3,3,9,2,20334
-1.76682,-0.633621,-2.95633,-10.5625,95.375,-60.0625,0.571289,0.387207,0.400879,0,-5,1,-1,6,0,96,11,20352
-1.75068,-0.664504,-2.98599,-6.5625,73.75,-31.5625,0.508789,0.369141,0.102051,12,-18,-3,-1,10,6,1,-4,20370
-1.74244,-0.685598,-3.00696,-3.875,58.375,-13,0.540527,0.231934,-0.149414,1,-12,4,-1,-5,-4,-19,2,20386
-1.73878,-0.69965,-3.02214,0,48.25,0.5625,0.529785,0.15625,-0.296875,8,10,-2,0,1,1,-16,-2,20403
-1.73878,-0.69965,-3.02214,0,48.25,0.5625,0.529785,0.15625,-0.296875,-7,-16,3,1,3,-2,19,3,20420
-1.73617,-0.72312,-3.02317,24.4375,-0.8125,24.9375,0.742676,0.240234,-0.397461,10,33,0,-2,-1,0,3,-4,20476
-1.74641,-0.727441,-3.00576,18.1875,-32,41.625,0.832031,0.380859,-0.220215,-4,-1,-11,-14,-4,-4,0,-1,20493
-1.76297,-0.719313,-2.97491,16.875,-75.3125,68.8125,0.817383,0.351563,-0.0546875,-4,-10,3,-13,0,2,-9,0,20510
-1.7848,-0.682524,-2.94589,-11.5,-89.0625,107.313,0.947754,0.435547,0.275391,-5,-1,-14,-30,-5,-2,34,-1,20527
-1.7848,-0.682524,-2.94589,-11.5,-89.0625,107.313,0.947754,0.435547,0.275391,1,16,75,44,9,4,86,1,20545
-1.81163,-0.634426,-2.91909,-29.9375,-90.4375,120.563,1.03564,0.665039,1.09375,3,23,46,31,-6,14,7,3,20562
-1.81843,-0.492112,-2.7602,197.938,-273.438,159.813,0.740723,0.410645,2.06299,-7,-23,-2,11,5,21,-100,-6,20579
-1.81843,-0.492112,-2.7602,197.938,-273.438,159.813,0.740723,0.410645,2.06299,-30,40,-16,41,6,-11,19,-3,20596
-1.77246,-0.413245,-2.67513,238.313,-264.313,171.563,1.27881,1.03027,2.52344,-1,-10,12,41,12,-19,55,1,20614
-1.74426,-0.343379,-2.59221,169.125,-254.938,155.563,1.11475,0.958008,2.49609,16,29,23,5,16,11,91,5,20630
-1.71396,-0.276104,-2.5289,142.063,-201.063,163.063,0.993652,0.692871,2.22217,7,-34,0,-33,-9,17,-83,-5,20648
-1.69426,-0.216503,-2.47429,94.25,-173.375,149.063,0.759277,0.893066,2.05615,5,-36,-3,-16,-6,18,-41,-12,20665
-1.69426,-0.216503,-2.47429,94.25,-173.375,149.063,0.759277,0.893066,2.05615,-39,-18,12,6,-13,0,-6,-4,20682
-1.67149,-0.119687,-2.38956,51.6875,-120,115.313,0.212402,0.513672,1.58252,-11,2,2,18,4,-16,21,4,20700
-1.67149,-0.119687,-2.38956,51.6875,-120,115.313,0.212402,0.513672,1.58252,21,4,-3,0,5,-5,-102,4,20716
-1.64955,-0.0796673,-2.35893,51.8125,-99.3125,105.625,-0.0561523,0.389648,1.19434,11,19,1,-4,0,3,88,-6,20733
-1.55638,0.0372575,-2.30129,46.0625,-37.625,70.25,-0.540039,-0.00439453,0.303223,-11,9,-3,-7,-14,-9,15,1,20792
-1.55638,0.0372575,-2.30129,46.0625,-37.625,70.25,-0.540039,-0.00439453,0.303223,2,19,1,10,-7,4,-42,-6,20809
-1.54135,0.0740682,-2.29465,27.75,-17.1875,54.4375,-0.75,-0.125977,0.210449,1,-13,1,-5,3,7,26,-11,20825
-1.53329,0.108001,-2.29239,15.4375,-4.625,34.1875,-0.944336,-0.258301,0.116211,2,-7,12,0,0,0,2,1,20842
-1.53054,0.133293,-2.29842,9.4375,17.5625,5.875,-1.00244,-0.341309,0.0170898,-7,-30,-4,-3,1,-7,17,-5,20859
-1.53515,0.146185,-2.3166,-9.8125,51,-29.4375,-0.986816,-0.324707,0.0581055,-4,-21,-9,-14,-6,-2,-6,1,20876
-1.53933,0.146786,-2.34035,-20.875,67.625,-60.375,-0.910156,-0.229004,0.269043,4,19,31,27,-10,-10,9,6,20893
-1.53933,0.146786,-2.34035,-20.875,67.625,-60.375,-0.910156,-0.229004,0.269043,3,11,20,11,2,1,-1,8,20910
-1.54442,0.103588,-2.39416,-20.5,84.0625,-101.438,-0.411133,0.119141,0.871094,-7,2,26,-108,-11,-9,-3,-2,20928
-1.54442,0.103588,-2.39416,-20.5,84.0625,-101.438,-0.411133,0.119141,0.871094,6,-48,-29,69,14,5,43,-6,20944
-1.57045,0.00600142,-2.4744,-42.625,117.188,-158,0.541992,1.04248,2.19531,-2,0,-42,-87,-4,0,-4,-1,20962
-1.57045,0.00600142,-2.4744,-42.625,117.188,-158,0.541992,1.04248,2.19531,-2,-14,-32,14,5,5,-5,-4,20978
-1.5971,-0.0596603,-2.52509,-80.5625,148,-186.25,0.977051,1.19629,2.47119,-19,7,-1,-2,-3,5,57,-2,20995
-1.63969,-0.124148,-2.58053,-136.688,166.875,-177.375,1.32617,1.72803,2.72803,-8,15,26,8,-3,-7,-27,-1,21012
-1.69261,-0.190956,-2.63306,-174.938,166.375,-176.438,1.49902,1.30908,2.354,17,14,-32,13,0,-6,17,4,21029
-1.74056,-0.259419,-2.68933,-173.75,184.063,-171.375,1.15186,1.06934,2.11279,-8,-7,2,12,-4,7,-9,-1,21046
-1.81511,-0.380096,-2.78927,-146.063,163,-131,0.856934,0.84082,1.38184,-9,29,5,14,-2,-15,45,0,21099
-1.83155,-0.432607,-2.83135,-106.563,135.313,-101.125,0.810059,0.638672,0.958008,-6,15,-6,16,-1,-17,62,6,21116
-1.83155,-0.432607,-2.83135,-106.563,135.313,-101.125,0.810059,0.638672,0.958008,6,5,-3,2,2,-3,-35,-1,21132
-1.8373,-0.476656,-2.86244,-61.875,103.313,-86.5625,0.740723,0.405273,0.540039,4,0,-4,3,0,-5,38,3,21149
-1.83872,-0.526971,-2.88656,-44.8125,79.375,-76.9375,0.614746,0.302246,0.225098,4,-3,-2,-2,-3,0,22,0,21166
-1.84368,-0.567429,-2.90225,-31.625,61.125,-63.1875,0.53418,0.229004,-0.0375977,4,-4,-2,-2,-2,2,-8,-2,21182
-1.85035,-0.600671,-2.91235,-20.9375,48.25,-48.3125,0.527344,0.203613,-0.192871,-1,2,4,-1,-2,0,12,-1,21199
-1.85826,-0.626833,-2.91544,-7.375,32.25,-32.875,0.56543,0.166016,-0.328125,-3,-1,-1,1,0,-19,-3,-1,21215
-1.8636,-0.6479,-2.91067,20.1875,15.25,-18.625,0.694824,0.132324,-0.474121,1,-1,-3,-1,0,-4,1,-1,21232
-1.86694,-0.6675,-2.90146,37.625,6.25,-10.5,0.80957,0.163086,-0.543457,-3,-7,1,0,3,8,-3,0,21249
-1.86937,-0.686411,-2.89427,33.125,5.3125,3.375,0.852051,0.375,-0.419434,11,13,-9,-6,-3,5,16,-2,21266
-1.86937,-0.686411,-2.89427,33.125,5.3125,3.375,0.852051,0.375,-0.419434,-6,-8,-28,2,0,-2,36,1,21284
-1.87116,-0.699999,-2.88893,28.125,-3.1875,34.5,0.928223,0.62793,-0.260742,-3,-4,-33,-1,-6,-2,21,1,21302
-1.87304,-0.693864,-2.8884,5.3125,-22.625,96,0.950195,0.71875,0.03125,12,44,67,85,15,9,-4,4,21319
-1.88432,-0.651646,-2.87902,-20.5,-65.375,124.625,0.89209,0.409668,0.486816,-3,-9,-12,58,2,-2,13,-2,21335
-1.89004,-0.597351,-2.86279,10.6875,-84.5625,136.125,1.06738,0.419922,1.11719,-2,12,14,-37,6,1,3,0,21353
-1.79648,-0.387179,-2.69263,208.25,-230.625,167.75,0.811523,0.890625,2.56641,-4,15,50,-2,4,-4,95,0,21418
-1.75507,-0.322214,-2.62451,186.375,-217.375,145.063,1.05566,0.589355,2.15137,15,21,8,12,8,0,-19,13,21434
-1.73436,-0.26842,-2.5735,102,-164.313,127.313,0.939453,0.849609,1.96387,8,6,30,-32,-29,-30,-128,-4,21452
-1.73967,-0.218906,-2.52785,16.25,-148.688,119.063,0.561035,0.814453,1.87158,-9,3,-15,-10,-2,-3,6,-5,21469
-1.74393,-0.173778,-2.48464,11.9375,-141.875,106.563,0.291504,0.556641,1.68262,-8,6,-7,7,1,6,52,-6,21486
-1.73312,-0.134836,-2.44824,25.375,-123.875,94.3125,0.0415039,0.521484,1.36719,0,-25,1,-7,-2,-1,52,-2,21503
-1.73312,-0.134836,-2.44824,25.375,-123.875,94.3125,0.0415039,0.521484,1.36719,1,14,-13,-2,0,-7,-121,2,21520
-1.71904,-0.0982533,-2.41433,36.1875,-113.375,86.5,-0.12793,0.387695,0.988281,6,24,-3,4,4,5,53,1,21537
-1.68911,-0.060949,-2.38582,47.125,-96.625,81.1875,-0.206543,0.154297,0.688477,-4,-10,-14,-8,-4,1,26,-2,21554
-1.65884,-0.0255618,-2.36424,53.3125,-71.375,74.6875,-0.28418,0.0957031,0.539551,4,15,6,1,-1,-1,84,1,21571
-1.63292,0.0120923,-2.34808,45.9375,-52.5,77.3125,-0.387207,0.0952148,0.422363,-2,-7,1,6,1,5,-19,-2,21588
-1.63292,0.0120923,-2.34808,45.9375,-52.5,77.3125,-0.387207,0.0952148,0.422363,6,2,-1,-9,-1,14,11,-1,21605
-1.61651,0.0495502,-2.33808,26,-32,72.25,-0.484863,-0.0292969,0.296875,6,2,-1,-9,-1,14,11,-1,21622
-1.61408,0.0838471,-2.33612,-7.8125,-7.1875,52.875,-0.669434,-0.17334,0.205566,-6,-6,-17,-3,-5,0,0,-3,21639
-1.61408,0.0838471,-2.33612,-7.8125,-7.1875,52.875,-0.669434,-0.17334,0.205566,-2,11,1,0,1,-17,-4,-2,21657
-1.62541,0.128299,-2.35961,-20.5,48.25,-14,-0.997559,-0.450195,0.0888672,-8,0,-1,-6,-1,-4,4,-6,21674
-1.64427,0.0941102,-2.44235,-49.625,114.563,-92.875,-0.510742,0.106934,0.625977,-5,-18,-23,28,6,-3,24,2,21740
-1.67364,0.0479638,-2.48761,-74.875,140.625,-120.438,-0.371582,0.385254,1.51855,-1,-11,-43,20,-10,-17,-36,-5,21757
-1.69653,0.00234682,-2.5247,-62.6875,120.25,-117.563,-0.182129,0.914551,2.23535,-11,53,3,55,24,-7,18,-6,21775
-1.70657,-0.0532353,-2.56591,-31.6875,138.063,-142.5,0.881348,1.18164,2.95557,-7,-7,-51,55,14,0,1,-3,21792
-1.73783,-0.108006,-2.60928,-99.8125,146.063,-136.625,2.02832,1.58301,2.89014,7,-2,5,-36,15,10,-61,4,21809
-1.77571,-0.180047,-2.65691,-128.125,171,-178,1.51416,1.1416,2.50342,-2,-5,15,-20,-23,3,-4,0,21826
-1.77571,-0.180047,-2.65691,-128.125,171,-178,1.51416,1.1416,2.50342,2,-7,24,-14,-26,-5,-10,2,21843
-1.80669,-0.247472,-2.7113,-121.875,191.063,-155.313,1.26172,1.16211,2.09473,-5,-7,7,-21,-18,-6,-22,-5,21860
-1.83664,-0.310811,-2.76292,-126.5,182.75,-140.375,1.06787,0.893066,1.7124,-4,18,18,-5,-5,4,-45,4,21877
-1.85835,-0.369413,-2.8104,-107.938,169.5,-126.5,0.79834,0.644043,1.29102,-7,4,12,-10,9,4,86,-9,21894
-1.85835,-0.369413,-2.8104,-107.938,169.5,-126.5,0.79834,0.644043,1.29102,2,2,-1,-9,2,-7,-30,0,21912
-1.8665,-0.476851,-2.87825,-46.5,102.563,-103.125,0.640137,0.390137,0.567871,-1,1,-2,-3,0,-2,99,-1,21929
-1.86525,-0.528165,-2.89869,-30.9375,74.625,-80.5,0.587402,0.333496,0.217285,-1,2,0,-4,0,-5,-25,2,21947
-1.86525,-0.528165,-2.89869,-30.9375,74.625,-80.5,0.587402,0.333496,0.217285,2,2,5,-5,1,9,6,-3,21964
-1.86839,-0.568797,-2.91091,-18.9375,55.5,-62.375,0.570801,0.236328,-0.0703125,1,-7,4,-6,-1,3,12,-1,21982
-1.87322,-0.600906,-2.91859,-8.875,45.4375,-46.3125,0.531738,0.190918,-0.255859,0,-3,8,-7,-5,-3,-36,-3,21999
-1.89192,-0.649113,-2.91129,18.375,3.0625,11.5,0.712402,0.127441,-0.449219,-3,-3,-3,-5,-1,-2,-1,0,22067
-1.89914,-0.653081,-2.90692,9.3125,-4.0625,35,0.702148,0.291016,-0.333496,-3,-3,-3,-5,-1,-2,-1,0,22085
-1.90715,-0.646159,-2.90284,0.5625,-21.3125,70.625,0.720215,0.421875,-0.172852,-1,2,7,-8,0,-1,6,-7,22102
-1.90715,-0.646159,-2.90284,0.5625,-21.3125,70.625,0.720215,0.421875,-0.172852,1,-6,-28,-28,3,6,5,-5,22119
-1.91988,-0.575104,-2.90475,-29.1875,-41.25,118.625,0.946289,0.270508,0.580078,1,-6,-28,-28,3,6,5,-5,22136
-1.92317,-0.527117,-2.8828,11.6875,-111.438,127.063,0.863281,0.536621,1.05273,-11,5,4,-65,-8,-7,16,3,22153
-1.91213,-0.460939,-2.84218,86.9375,-160.75,143.688,0.879883,0.780762,1.875,-8,8,3,-10,2,-11,34,3,22169
-1.88608,-0.38461,-2.7897,135.875,-200.438,162.5,0.82959,0.729492,2.4375,92,15,24,-22,-32,59,-128,-18,22186
-1.88608,-0.38461,-2.7897,135.875,-200.438,162.5,0.82959,0.729492,2.4375,-128,-12,100,14,1,-51,38,-7,22203
-1.8632,-0.30788,-2.73663,117.188,-202.375,167.188,0.898926,0.84668,2.646,-12,21,-11,53,10,-27,101,-1,22220
-1.82923,-0.240897,-2.67807,142.875,-207.688,140.75,0.836426,0.490723,2.32129,-12,21,-11,53,10,-27,101,-1,22237
-1.79324,-0.18624,-2.63156,131.188,-164.125,121,0.836914,0.665039,1.84424,34,-1,-55,-7,-5,-3,-6,12,22254
-1.78066,-0.140897,-2.58775,56.6875,-149.125,100.375,0.584961,0.879395,1.74463,9,-9,-23,-17,-4,0,-50,7,22270
-1.78066,-0.140897,-2.58775,56.6875,-149.125,100.375,0.584961,0.879395,1.74463,8,-13,-28,-33,-8,8,-42,-3,22287
-1.77409,-0.063264,-2.50894,18.875,-126.313,80.1875,0.129883,0.523438,1.48535,9,0,-7,5,-3,9,-65,-2,22304
-1.77409,-0.063264,-2.50894,18.875,-126.313,80.1875,0.129883,0.523438,1.48535,-6,6,12,-1,5,6,-12,-5,22321
-1.69615,0.0411542,-2.40692,70.5625,-96.75,66.625,-0.334961,0.0688477,0.574707,0,0,0,-5,-4,-4,32,-1,22379
-1.65892,0.0753107,-2.38022,76.1875,-81,56.1875,-0.477539,-0.00878906,0.382813,1,0,-5,-5,2,-4,-9,0,22396
-1.62945,0.10566,-2.36148,65.75,-55.75,41.625,-0.616211,-0.190918,0.192871,-1,-4,-11,-10,-7,-1,43,-3,22413
-1.61607,0.131248,-2.35391,26.5625,-21.8125,19.4375,-0.80957,-0.326172,0.125488,-4,-4,-5,8,-2,0,7,0,22430
-1.6144,0.149266,-2.35781,-3.6875,13.0625,-8.5,-0.940918,-0.40625,0.125,3,15,-5,-6,-2,-1,20,-2,22446
-1.6144,0.149266,-2.35781,-3.6875,13.0625,-8.5,-0.940918,-0.40625,0.125,3,-7,-2,2,16,7,-11,1,22463
-1.62509,0.156732,-2.39734,-33.125,74.0625,-51.9375,-0.82959,-0.231934,0.341309,3,-7,-2,2,16,7,-11,1,22480
-1.62509,0.156732,-2.39734,-33.125,74.0625,-51.9375,-0.82959,-0.231934,0.341309,-7,-1,-4,-16,-8,-11,6,-2,22497
-1.63495,0.145567,-2.42788,-46.0625,95.625,-74.1875,-0.713867,-0.106934,0.44043,-1,6,6,9,-5,-11,-6,-2,22514
-1.65674,0.108107,-2.46967,-61.375,128.875,-103.75,-0.345215,0.0556641,0.81543,-1,-14,-13,-7,-8,-24,17,3,22531
-1.69434,0.0552688,-2.52389,-95.125,169.875,-134.188,-0.192871,0.529297,1.60547,1,-6,-8,-3,-5,56,60,0,22548
-1.74499,-0.00806126,-2.57057,-142,159.188,-159.813,-0.0795898,0.994629,2.54004,9,-5,12,0,7,-11,33,6,22565
-1.8083,-0.0674661,-2.60451,-184.938,129.75,-147,0.844238,1.26318,3.13574,1,-4,-8,-22,-4,1,0,-4,22581
-1.86021,-0.0985843,-2.63431,-155.813,105.625,-64.0625,1.82227,0.716309,2.72803,-30,-43,-114,-65,-17,-10,-107,-7,22598
-1.86021,-0.0985843,-2.63431,-155.813,105.625,-64.0625,1.82227,0.716309,2.72803,4,9,-8,-11,-8,7,-29,-1,22616
-1.88593,-0.144072,-2.66656,-85.0625,126.375,-96.8125,1.51074,0.380371,2.18701,4,9,-8,-11,-8,7,-29,-1,22632
-1.99543,-0.363754,-2.75901,-64.4375,96.5,-110.625,0.73877,0.407715,0.817871,-1,4,10,6,-5,-4,-74,-1,22714
-1.99254,-0.424713,-2.77574,-26.25,83.3125,-92.8125,0.599121,0.493652,0.508301,-6,5,11,10,-3,-5,28,-4,22730
-1.99465,-0.471568,-2.78829,-19.875,65.875,-66.375,0.495117,0.491211,0.199707,-6,5,11,10,-3,-5,28,-4,22747
-1.99465,-0.471568,-2.78829,-19.875,65.875,-66.375,0.495117,0.491211,0.199707,2,-1,-14,-2,1,-5,-12,0,22764
-1.99877,-0.504466,-2.79864,-13.3125,54.125,-38.8125,0.463379,0.333496,-0.0786133,2,0,4,-1,2,1,9,0,22781
