roll,pitch,yaw, gyro_x, gyro_y, gyro_z, accel_x, accel_y, accel_z, EMG0, EMG1, EMG2, EMG3, EMG4, EMG5, EMG6, EMG7, time
0,0,0,0,0,0,0,0,0,0,0,0,0,0,0,0,0,423
-1.6916,-0.992984,0.308389,-134.313,138.813,-229.75,2.52588,0.111816,-0.230957,0,0,0,0,0,0,0,0,439
-1.6916,-0.992984,0.308389,-134.313,138.813,-229.75,2.52588,0.111816,-0.230957,0,0,0,0,0,0,0,0,455
-1.61611,-1.09428,0.178012,-107.438,211.438,-273.688,2.9292,-0.249023,0.0805664,0,0,0,0,0,0,0,0,472
-1.49422,-1.19141,0.01905,-66.375,184.938,-281.063,3.34521,-0.30127,-0.0668945,0,0,0,0,0,0,0,0,489
-1.31434,-1.27272,-0.196473,-67.4375,163.938,-262.5,2.94531,-0.90625,-0.541504,0,0,0,0,0,0,0,0,506
-1.0468,-1.33235,-0.496667,-64,145.563,-242.875,3.49951,-0.550781,0.366211,0,0,0,0,0,0,0,0,524
-1.0468,-1.33235,-0.496667,-64,145.563,-242.875,3.49951,-0.550781,0.366211,0,0,0,0,0,0,0,0,540
-0.701656,-1.36567,-0.878281,-78.9375,123.375,-225.438,2.40918,-0.430176,-0.475098,0,0,0,0,0,0,0,0,557
-0.403967,-1.37366,-1.23666,-152.75,88.3125,-185.375,2.89355,-0.10498,-0.112305,0,0,0,0,0,0,0,0,573
-0.220941,-1.37207,-1.49919,-213.188,57.375,-146.25,1.56689,-0.456055,-0.235352,0,0,0,0,0,0,0,0,590
-0.220941,-1.37207,-1.49919,-213.188,57.375,-146.25,1.56689,-0.456055,-0.235352,0,0,0,0,0,0,0,0,606
-0.119798,-1.3645,-1.67775,-208.938,50.125,-106.688,1.55713,-0.550293,-0.36084,0,0,0,0,0,0,0,0,623
-0.119798,-1.3645,-1.67775,-208.938,50.125,-106.688,1.55713,-0.550293,-0.36084,-4,-2,-1,3,0,2,-1,0,642
-0.0067504,-1.34057,-1.88981,-113.313,40.4375,-61.9375,0.764648,-0.476563,-0.525391,0,-1,-1,1,-1,-2,2,-3,659
-0.0183716,-1.33791,-1.91218,-88.875,40.875,-42.5,0.819824,-0.404297,-0.294434,-3,-3,-2,2,-1,-4,-6,-7,676
-0.0956425,-1.34083,-1.87109,-28.6875,21.8125,-14.375,-0.181152,-0.515625,-0.530762,-1,-1,-2,-2,1,-1,4,0,733
-0.15091,-1.34823,-1.81947,-3.8125,11.4375,-9.5,-0.313477,-0.59082,-0.619629,-1,-1,-2,-2,1,-1,4,0,751
-0.354891,-1.3838,-1.59644,42.875,-21.9375,13.5,0.0620117,-0.685547,-0.818359,5,-1,0,-7,0,1,6,-3,767
-0.547041,-1.39891,-1.38275,63.125,-24,41.375,0.196777,-0.590332,-0.87793,2,0,0,-6,-5,0,17,-8,785
-0.764255,-1.39709,-1.13693,81.5625,-19.625,65.375,0.275391,-0.537109,-0.687012,2,-7,-4,-20,-7,-1,7,-6,801
-0.764255,-1.39709,-1.13693,81.5625,-19.625,65.375,0.275391,-0.537109,-0.687012,0,4,-8,2,0,1,2,2,818
-0.956192,-1.37629,-0.916149,82.375,-11.8125,77.9375,0.697754,-0.73291,-0.453125,-10,0,-4,4,27,6,-35,9,835
-1.09905,-1.35305,-0.744101,83.4375,-12.9375,75,1.77832,-0.838379,-0.368164,11,-6,11,-32,-38,-2,49,-26,852
-1.20955,-1.32194,-0.578736,144.375,-64.125,125.125,2.68018,-0.591309,0.00927734,3,-5,5,2,7,4,23,-1,870
-1.35125,-1.27691,-0.36078,196.625,-123.438,171.125,2.89941,-0.864746,0.315918,-18,11,-6,2,-17,-8,-82,13,887
-1.46979,-1.21551,-0.15245,226.875,-159.875,203.25,3.05566,-0.812988,0.470215,1,-6,1,12,13,9,42,-4,903
-1.46979,-1.21551,-0.15245,226.875,-159.875,203.25,3.05566,-0.812988,0.470215,7,2,-4,4,-4,3,-4,6,921
-1.55078,-1.1402,-0.0249621,106,-126.375,223.813,2.5249,-0.645508,0.235352,1,-5,-3,4,-9,-2,12,-6,937
-1.59726,-1.06464,0.0536979,64.75,-109.25,224.875,1.85596,-0.449219,0.396973,-8,-1,-3,3,4,-7,-8,-9,955
-1.63174,-0.996444,0.117861,57.875,-106,205.5,1.89404,-0.213379,0.0976563,3,-1,-3,-4,2,-4,2,-3,972
-1.66509,-0.935746,0.166104,16.9375,-94.6875,187.813,1.94141,0.0517578,0.0664063,0,-2,-1,-3,-5,0,3,1,988
-1.69786,-0.759055,0.289546,95,-108.438,156.125,0.786621,0.183594,0.0610352,4,-1,1,0,2,-2,5,1,1059
-1.69257,-0.711045,0.327659,88.5625,-98.6875,137.25,0.500488,0.354492,0.0395508,1,2,2,-1,6,1,0,2,1075
-1.69313,-0.668227,0.359855,55.9375,-87.875,121.813,0.258301,0.500977,0.142578,-6,-2,-4,-5,6,0,6,-2,1093
-1.69397,-0.632187,0.386853,41.375,-76.75,101.563,0.059082,0.61084,0.26709,1,-4,0,2,1,-5,6,-3,1109
-1.68694,-0.6174,0.40204,26.9375,-56.75,63.3125,-0.128418,0.837891,0.442383,4,0,-2,-6,1,-3,-5,-1,1126
-1.67767,-0.619266,0.406322,10.625,-27.875,15,-0.328125,1.0083,0.529785,6,2,-1,5,4,3,-6,-2,1143
-1.67767,-0.619266,0.406322,10.625,-27.875,15,-0.328125,1.0083,0.529785,-4,-6,-2,-5,-3,2,8,0,1160
-1.67142,-0.64387,0.398345,-12.9375,10,-41.1875,-0.368652,1.16064,0.442383,-7,-10,-1,2,0,-2,8,-5,1177
-1.67703,-0.693541,0.383252,-54.1875,34.9375,-96.5,-0.0859375,1.06885,0.331543,6,-2,1,-3,3,4,10,-11,1194
-1.69111,-0.747444,0.359211,-89.0625,64.75,-134.25,0.268555,0.840332,0.351074,2,-10,-1,0,-1,11,13,2,1210
-1.70008,-0.817912,0.322637,-99.625,96.5,-173.375,0.813965,0.655762,0.0981445,1,5,-5,2,13,0,-4,2,1228
-1.71249,-0.904684,0.270185,-149.938,130.813,-233.625,2.84375,0.0263672,-0.257324,3,5,5,-20,-10,-14,-17,6,1244
-1.71249,-0.904684,0.270185,-149.938,130.813,-233.625,2.84375,0.0263672,-0.257324,-15,-7,3,-20,-4,-4,19,-8,1262
-1.69273,-1.00645,0.170992,-175.938,201.25,-267.625,2.72168,-0.806641,0.121582,-7,-6,-10,4,-4,-2,4,-9,1279
-1.64295,-1.10251,0.0628023,-127.375,179.063,-258.875,3.17139,-0.746094,0.0200195,-4,-2,-4,11,-10,0,10,1,1296
-1.55092,-1.19067,-0.0744742,-94.8125,168.625,-247.625,3.16797,-0.834961,-0.175293,-1,1,-3,4,0,4,-6,3,1313
-0.891782,-1.35136,-0.855509,-119.813,139.25,-186.438,2.5791,-0.175781,-0.310547,-2,0,0,-1,-4,3,-4,-1,1388
-0.665114,-1.36601,-1.16071,-205.75,108,-159.813,1.89502,-0.181641,-0.241699,0,-2,2,2,-7,-6,1,-7,1403
-0.49622,-1.36644,-1.41128,-216.063,90.125,-130.875,1.25244,-0.616699,-0.430176,3,-2,0,3,-1,-2,1,-5,1420
-0.370925,-1.35635,-1.60075,-169.688,80.6875,-100.375,0.731934,-0.646484,-0.315918,2,-3,-1,4,8,-3,12,0,1437
-0.276776,-1.34489,-1.73616,-106.75,65.625,-77.125,0.365234,-0.456055,-0.395508,3,1,1,0,-3,-3,4,0,1455
-0.266011,-1.34387,-1.77078,-57.0625,47.8125,-49.5,0.351563,-0.440918,-0.503418,-7,-1,-4,-8,0,-1,-8,0,1471
-0.270185,-1.34258,-1.77051,-0.6875,45.75,-33.6875,0.112305,-0.529297,-0.605469,0,-2,0,-15,1,5,8,-3,1488
-0.287728,-1.34425,-1.74003,46.875,34.125,-23,-0.123535,-0.600586,-0.684082,-6,-1,-6,-8,-2,-6,-14,-21,1506
-0.287728,-1.34425,-1.74003,46.875,34.125,-23,-0.123535,-0.600586,-0.684082,-3,-2,1,-2,-1,1,1,1,1523
-0.31647,-1.35477,-1.68835,73.125,13.3125,-21.9375,-0.22998,-0.645508,-0.83252,-3,-1,-4,-5,-1,-5,-14,-11,1540
-0.411972,-1.37464,-1.57654,53.9375,-15.6875,-2.375,-0.090332,-0.652344,-0.902344,-7,-1,-2,2,-1,6,-6,0,1557
-0.621672,-1.39365,-1.35563,36.4375,-33.6875,27.875,0.144531,-0.723633,-1.02246,-6,-2,-2,-3,-4,-6,-11,-1,1574
-0.621672,-1.39365,-1.35563,36.4375,-33.6875,27.875,0.144531,-0.723633,-1.02246,3,-1,1,-9,-6,-1,6,-3,1591
-1.12689,-1.37152,-0.829846,24.0625,-34.6875,89.0625,0.411133,-0.536133,-0.59375,2,-2,6,5,2,1,14,-3,1607
-1.12689,-1.37152,-0.829846,24.0625,-34.6875,89.0625,0.411133,-0.536133,-0.59375,12,0,15,-10,-7,0,49,-10,1623
-1.23259,-1.343,-0.709522,38.875,-12.875,85.875,1.1123,-0.484863,-0.255371,-5,-1,-1,-15,4,-3,-20,-8,1641
-1.58556,-1.21026,-0.227241,126.625,-163.938,183,2.5752,-0.669434,0.0537109,-4,2,-4,-2,-6,4,-18,15,1700
-1.68638,-1.12638,-0.0697911,126.938,-192,227.875,2.87598,-0.794922,0.345215,11,-2,5,-1,-10,0,14,-8,1716
-1.73321,-1.0399,0.0355774,133.188,-175,225.875,2.84424,-0.760742,0.22168,-7,2,-4,11,3,3,-24,12,1733
-1.74822,-0.957425,0.114855,148,-161.188,211.938,2.58057,-0.205566,0.237305,-4,-1,-5,5,-2,-6,-4,-1,1751
-1.75213,-0.875853,0.185768,150.5,-163.688,208.188,2.23535,0.168457,0.112793,3,-2,-4,-2,-1,-6,-1,1,1768
-1.75761,-0.813075,0.245761,111.938,-150.813,179.813,1.82959,0.208008,0.09375,-2,0,-6,-2,6,5,-5,3,1785
-1.75761,-0.813075,0.245761,111.938,-150.813,179.813,1.82959,0.208008,0.09375,1,-3,0,1,2,0,7,-4,1803
-1.76531,-0.755342,0.297108,79.4375,-139.313,158.75,1.20654,0.129395,0.1875,-2,-6,-2,-2,0,-4,2,-3,1819
-1.76477,-0.698863,0.344221,88.8125,-135.313,155,1.05273,0.181641,0.203613,4,-2,0,0,-11,-6,-4,-1,1835
-1.75461,-0.646285,0.387338,103.75,-128,142.813,0.803711,0.227051,0.223633,-1,-5,-1,0,3,8,0,3,1852
-1.73712,-0.602712,0.425275,111.125,-112.313,117.625,0.532227,0.251465,0.228027,-3,-1,-1,-2,1,-4,0,-8,1870
-1.71757,-0.567134,0.454858,100,-88.625,98.4375,0.341309,0.451172,0.225586,3,-2,0,-4,-5,2,0,0,1887
-1.69397,-0.549287,0.472953,80.875,-64,76.75,0.140137,0.683105,0.331543,1,-1,-1,-4,-4,-2,1,1,1904
-1.69397,-0.549287,0.472953,80.875,-64,76.75,0.140137,0.683105,0.331543,-1,-2,1,1,5,1,-5,1,1922
-1.67017,-0.53836,0.480049,61.3125,-33.9375,49.9375,-0.166504,0.891113,0.391602,4,0,2,-7,-3,-3,1,-2,1939
-1.65082,-0.533689,0.478521,34.4375,-8.625,16.125,-0.510254,0.933105,0.400879,2,-5,1,-4,-2,-1,-2,-6,1956
-1.68256,-0.680519,0.403156,-107.25,73.6875,-137.25,0.642578,0.567383,0.0664063,10,-3,-5,7,-3,2,16,1,2024
-1.68256,-0.680519,0.403156,-107.25,73.6875,-137.25,0.642578,0.567383,0.0664063,-5,-3,-8,11,2,0,-21,2,2040
-1.71933,-0.750885,0.368928,-169.813,99.8125,-190.625,3.26611,0.160645,-0.374512,-6,3,-2,4,15,-14,-30,0,2057
-1.72135,-0.846282,0.293448,-160.938,190.125,-247.625,2.80859,-0.638184,0.123535,15,20,3,-17,-10,13,25,-3,2075
-1.72135,-0.846282,0.293448,-160.938,190.125,-247.625,2.80859,-0.638184,0.123535,15,20,3,-17,-10,13,25,-3,2091
-1.6388,-1.03148,0.11887,-75.1875,170.438,-239.625,3.17236,-0.839355,-0.236816,-5,0,2,1,-14,-3,8,-3,2108
-1.6388,-1.03148,0.11887,-75.1875,170.438,-239.625,3.17236,-0.839355,-0.236816,2,0,3,-1,0,9,8,-8,2125
-1.49475,-1.17857,-0.122611,-120.5,148.125,-201.563,2.59082,-0.150879,-0.141113,8,2,6,1,-12,-14,5,-11,2141
-1.49475,-1.17857,-0.122611,-120.5,148.125,-201.563,2.59082,-0.150879,-0.141113,9,2,3,-6,-9,-3,2,20,2159
-1.42076,-1.24083,-0.275881,-199.938,133.875,-195,2.58252,-0.0546875,-0.36377,-5,1,1,-4,2,0,-1,-3,2177
-1.37249,-1.29208,-0.435133,-295.25,119.625,-165.563,1.97314,-0.346191,-0.5,3,-2,0,88,-11,-8,13,-10,2195
-1.30423,-1.32423,-0.600563,-257.813,108.125,-126,1.15869,-0.811035,-0.518555,3,1,0,21,-8,-10,-2,0,2212
-1.22084,-1.33963,-0.743346,-157.875,86.375,-82.625,0.686523,-0.73877,-0.413574,0,0,1,-17,7,9,-6,1,2229
-1.18474,-1.34725,-0.809404,-69.4375,67.5,-65.8125,0.246094,-0.504395,-0.512207,-2,-1,-1,-19,4,5,1,-2,2246
-1.18397,-1.3512,-0.823006,-27,42.125,-44.5625,0.0351563,-0.446777,-0.57666,5,-1,0,-6,4,6,18,13,2262
-1.18397,-1.3512,-0.823006,-27,42.125,-44.5625,0.0351563,-0.446777,-0.57666,-3,-2,-3,-3,3,-2,-4,-8,2280
-1.41068,-1.33335,-0.552347,63.4375,-11.125,-3.8125,-0.254883,-0.509277,-0.879395,-4,-3,1,-2,-2,0,-10,1,2354
-1.53221,-1.31777,-0.418878,38.875,-22.75,22,0.106445,-0.496094,-0.96582,0,1,-3,-1,-1,-1,6,-1,2371
-1.63031,-1.29223,-0.315605,20.125,-24.6875,47.5,0.293457,-0.465332,-0.808105,-10,-2,-12,-7,0,-3,-17,8,2388
-1.63031,-1.29223,-0.315605,20.125,-24.6875,47.5,0.293457,-0.465332,-0.808105,-2,1,-1,20,5,0,-10,1,2404
-1.67021,-1.25249,-0.263938,37.25,-17.1875,69.75,0.340332,-0.722168,-0.538574,-24,-1,-17,9,6,-3,-50,20,2421
-1.68467,-1.20989,-0.233018,51.3125,-14.0625,82.0625,1.16113,-0.98877,-0.470703,-2,-9,-4,-19,-6,3,33,-15,2438
-1.71209,-1.17116,-0.175548,75.125,-71.75,100.938,2.14307,-0.962402,-0.314453,8,5,4,5,-17,-17,-6,5,2455
-1.74504,-1.10543,-0.0846308,142.063,-137.438,168.625,2.56738,-0.757813,-0.0605469,-1,-10,-1,-5,8,4,9,-6,2473
-1.76657,-1.02728,0.0178495,196,-180.813,194.125,3.12354,-0.884277,0.102539,-2,4,3,10,-6,5,-2,-1,2490
-1.76657,-1.02728,0.0178495,196,-180.813,194.125,3.12354,-0.884277,0.102539,-2,4,3,10,-6,5,-2,-1,2506
-1.77387,-0.942294,0.0977899,170.25,-172.625,213.938,3.09229,-0.746582,0.1875,7,0,3,-2,-6,2,10,-4,2523
-1.78817,-0.858721,0.15596,89.5625,-151.5,212.563,2.65088,-0.405762,0.462891,-3,0,-1,3,1,1,-2,0,2540
-1.78351,-0.781331,0.201082,108.188,-133.688,197.625,2.34766,-0.225098,0.347168,-6,-1,0,-1,4,-3,-1,-4,2557
-1.78837,-0.71148,0.235482,53.125,-113.375,180.063,2.12305,-0.0185547,0.0991211,-5,0,-2,1,-2,-2,-5,-1,2574
-1.80482,-0.653126,0.26196,-2.4375,-102.25,171.875,1.65576,0.00976563,0.194336,-1,-3,-1,6,3,0,1,-3,2591
-1.80901,-0.591035,0.290399,30.75,-113.438,173.25,1.15381,-0.0405273,0.329102,6,6,4,-4,-3,6,2,1,2608
-1.74659,-0.449345,0.369411,79.4375,-72.3125,108.375,0.392578,0.545898,0.168457,-1,-2,-2,-1,-1,-3,2,0,2673
-1.73282,-0.42732,0.382878,46.0625,-54.625,86.125,0.166992,0.703613,0.276367,0,-1,-1,-3,6,-5,-2,-3,2689
-1.72417,-0.40885,0.393348,18.875,-45.8125,62.0625,-0.101563,0.77002,0.413574,3,1,-3,0,4,-2,-1,-3,2706
-1.72417,-0.40885,0.393348,18.875,-45.8125,62.0625,-0.101563,0.77002,0.413574,4,0,-2,2,3,1,-4,-2,2723
-1.71864,-0.39936,0.398941,1.75,-28.4375,31.25,-0.259277,0.866699,0.463379,-10,-3,0,10,10,-3,-6,-2,2740
-1.71862,-0.404418,0.396014,-23.8125,0.3125,-10.6875,-0.334473,0.866211,0.460938,9,9,7,-3,-5,6,11,-1,2759
-1.72938,-0.427133,0.383683,-62.9375,32.4375,-49.3125,-0.201172,0.794434,0.421387,-3,-2,-5,-6,-1,4,6,5,2776
-1.74117,-0.47221,0.361465,-77.3125,65.1875,-89.1875,0.138672,0.648926,0.379883,-6,-5,4,-6,-11,-1,28,-9,2793
-1.75343,-0.525822,0.328735,-82.1875,104.813,-126.125,0.39502,0.571289,0.263184,2,-9,4,-5,-3,-3,1,-4,2809
-1.77186,-0.59208,0.288003,-114.688,133.688,-167.313,1.5415,0.231445,0.0332031,0,8,-7,9,11,8,-5,-7,2827
-1.77186,-0.59208,0.288003,-114.688,133.688,-167.313,1.5415,0.231445,0.0332031,-8,3,-7,-7,-3,-16,-10,6,2845
-1.78806,-0.686152,0.220815,-161.5,207.25,-232,2.95557,-0.705566,0.0703125,-1,2,-10,-5,0,-1,-5,-1,2862
-1.77845,-0.779387,0.141038,-125.5,222.813,-225.375,2.98779,-0.574707,0.167969,1,-3,7,-8,-13,10,31,-1,2880
-1.7491,-0.86288,0.0644948,-76.9375,192.625,-206.25,3.22852,-0.730957,-0.231445,-10,-7,-1,6,-4,9,1,1,2897
-1.72015,-0.938194,-0.00921337,-82.625,164.813,-191.438,2.9668,-0.558594,-0.404297,-1,5,-1,5,-14,-7,-13,4,2914
-1.69738,-1.00865,-0.0751132,-90.9375,132.75,-185.188,2.7793,-0.223633,-0.509277,2,0,3,1,0,-1,-3,1,2931
-1.8336,-1.17326,-0.171962,-248.563,58.5625,-121.125,1.35254,-0.583984,-0.663086,1,1,0,2,-1,-4,-3,-2,2992
-1.8843,-1.20412,-0.188322,-188.313,47.4375,-90.125,0.814453,-0.879883,-0.458496,-1,-6,0,3,-8,-6,-8,-4,3009
-1.8843,-1.20412,-0.188322,-188.313,47.4375,-90.125,0.814453,-0.879883,-0.458496,-1,-6,-1,3,-1,-5,1,4,3026
-1.91273,-1.21306,-0.192622,-90.375,32.8125,-63.3125,0.398926,-0.762207,-0.375,1,-5,-2,-1,9,-1,-1,-6,3044
-1.92935,-1.21628,-0.17836,-6.0625,10.5,-45.4375,0.237305,-0.565918,-0.351563,1,0,-1,-1,-4,-5,-4,-1,3061
-1.94201,-1.21269,-0.152859,36.875,-3.1875,-26.8125,0.0195313,-0.433594,-0.371094,-1,3,-2,-1,0,-6,-4,-1,3077
-1.95999,-1.20127,-0.117268,49.8125,-16.4375,-14.4375,-0.141602,-0.442871,-0.433105,1,2,-3,5,4,1,-16,1,3094
-1.97562,-1.18569,-0.083216,53.375,-14.0625,-8.8125,-0.21875,-0.484863,-0.534668,1,-1,-3,-6,-2,1,17,4,3111
-1.99184,-1.16522,-0.0528683,44.6875,-7.0625,-3.375,-0.259766,-0.594727,-0.693848,-1,-2,0,-1,1,-3,-8,-3,3127
-1.99184,-1.16522,-0.0528683,44.6875,-7.0625,-3.375,-0.259766,-0.594727,-0.693848,2,-1,-1,-10,-5,-2,21,-17,3145
-2.01102,-1.13883,-0.0286171,22.125,-3.5625,15.875,-0.0571289,-0.627441,-0.835449,-1,-3,-6,-12,-4,4,16,15,3162
-2.02547,-1.10663,-0.00916413,23.5625,-15.125,43.5625,0.293945,-0.606445,-0.810547,-6,0,-5,4,-4,-5,-40,4,3179
-2.0181,-1.0655,0.000582908,57.0625,-26.375,73.5,0.380859,-0.63623,-0.682129,-4,4,11,14,3,3,-7,1,3197
-1.97132,-1.02948,-0.018605,92.5625,5.3125,82,0.644043,-0.745117,-0.520996,-5,-2,-7,-23,-6,-3,-5,4,3214
-1.92643,-0.99557,-0.0347481,94.4375,3.3125,79.125,1.16553,-1.05664,-0.531738,5,-6,-3,-9,4,-9,18,3,3229
-1.90839,-0.941634,-0.026897,70.25,-64.375,140.938,2.62988,-0.993164,-0.279785,-8,-2,-11,11,0,0,-31,0,3249
-1.84134,-0.690008,0.0775175,108.125,-127.563,212.125,2.57813,-0.636719,0.0209961,2,0,0,-3,-4,2,-8,-3,3318
-1.82822,-0.625196,0.102903,77.0625,-114.438,187.063,2.02295,-0.455566,0.22998,-3,-1,-1,-5,-2,0,6,-2,3334
-1.81217,-0.566966,0.130663,87.125,-113.375,169.563,1.97363,-0.39209,0.135254,-1,-1,0,-8,-4,-2,11,-4,3352
-1.79981,-0.514234,0.157412,72.5,-106.938,157,1.85742,-0.175293,0.0908203,2,0,-2,6,4,3,3,2,3369
-1.79981,-0.514234,0.157412,72.5,-106.938,157,1.85742,-0.175293,0.0908203,-3,2,-3,0,2,-4,-9,2,3386
-1.7847,-0.464064,0.182358,74.0625,-99.9375,149.688,1.51123,0.0302734,0.180176,4,2,2,-3,-2,-1,4,2,3403
-1.75978,-0.417238,0.209481,102.063,-100.625,135.125,1.06299,0.246094,0.187988,-1,-4,-1,-2,-4,-1,2,-2,3420
-1.73165,-0.375359,0.242972,116.25,-111.313,116.688,0.76709,0.311523,0.152344,6,2,8,9,8,-6,-3,-2,3437
-1.70854,-0.339038,0.273897,94.9375,-99.9375,100.438,0.452148,0.453125,0.173828,4,-2,2,6,-2,0,13,-5,3454
-1.69018,-0.313454,0.29826,65.9375,-79.75,78.1875,0.0385742,0.567871,0.208008,-7,-3,-4,-17,-5,2,13,-2,3471
-1.67474,-0.29152,0.317543,37.125,-66.75,54.8125,-0.193848,0.570801,0.424805,-1,-3,-3,-3,-3,-4,-6,-1,3488
-1.67474,-0.29152,0.317543,37.125,-66.75,54.8125,-0.193848,0.570801,0.424805,-4,-3,-3,-10,-7,-2,14,4,3505
-1.66531,-0.288747,0.328349,5.875,-39.75,9.0625,-0.162109,0.756836,0.541016,0,-5,-2,-11,-4,0,10,-5,3522
-1.66092,-0.303329,0.328784,-16.1875,-7.0625,-31,-0.129395,0.947266,0.536133,-3,-2,-10,9,9,-2,-35,6,3539
-1.66489,-0.33263,0.320318,-40.625,22.375,-70.375,-0.155273,0.95752,0.435547,-2,0,2,-13,-5,-4,24,-8,3556
-1.6857,-0.374068,0.307386,-76.125,44.875,-109.375,0.027832,0.727051,0.308594,-3,-4,-9,-3,0,-2,-19,9,3573
-1.74519,-0.569008,0.223813,-114.813,120.313,-213,2.51172,0.349609,-0.0688477,13,3,13,-17,-5,-14,-5,-4,3637
-1.76213,-0.663185,0.166838,-143,180.5,-241.188,2.88281,-0.452148,0.0429688,-6,-4,1,-19,-16,-10,19,-15,3655
-1.76265,-0.756832,0.105403,-116.625,182.313,-238.188,3.09473,-0.811035,0.0395508,-2,2,-9,5,2,6,4,-2,3672
-1.74096,-0.84287,0.0435192,-65.125,166.063,-220.063,3.0249,-0.84082,-0.143066,-3,-1,1,-4,-9,6,14,-1,3689
-1.74096,-0.84287,0.0435192,-65.125,166.063,-220.063,3.0249,-0.84082,-0.143066,0,1,0,5,0,4,-9,0,3706
-1.71661,-0.921768,-0.0227084,-76.6875,154.625,-204.563,3.05518,-0.444336,-0.16748,-5,-2,-2,4,3,1,-6,-8,3723
-1.69032,-0.99237,-0.0919969,-87.4375,140.25,-185.438,3.04688,-0.248047,-0.240234,-2,-1,3,1,1,-5,-10,-9,3740
-1.68748,-1.05144,-0.15569,-147.438,114.375,-156.813,2.55518,-0.235352,-0.287109,-2,-2,1,0,-4,-4,-11,3,3757
-1.71788,-1.10254,-0.199899,-196.875,82.1875,-129.563,1.81396,-0.385254,-0.348633,0,0,0,1,-7,-3,2,0,3774
-1.75713,-1.13702,-0.231573,-192.125,60.0625,-94.125,1.17139,-0.728027,-0.397949,3,-2,3,1,-3,-1,10,-9,3791
-1.77345,-1.16189,-0.264447,-131.688,56.3125,-70.0625,0.568848,-0.715332,-0.365234,0,-1,0,4,7,-5,-8,9,3808
-1.77345,-1.16189,-0.264447,-131.688,56.3125,-70.0625,0.568848,-0.715332,-0.365234,1,-3,-2,3,4,-2,4,3,3825
-1.80101,-1.16729,-0.266572,-77.25,29.1875,-43.75,0.367676,-0.601074,-0.406738,-6,0,-2,7,3,-5,-9,-2,3842
-1.82121,-1.16327,-0.259235,-27.3125,22.125,-19.875,0.265137,-0.563965,-0.550293,3,2,-2,-4,3,1,-6,-2,3858
-1.83933,-1.14208,-0.237695,15.625,-0.6875,10.25,0.0317383,-0.676758,-0.619141,1,-2,-2,-2,1,1,8,5,3875
-1.86581,-1.11344,-0.201357,32.875,-23.3125,27.75,-0.189453,-0.546387,-0.654785,-3,-2,1,-7,-6,-2,-5,-6,3892
-1.99646,-0.949083,-0.0328753,46.3125,-39.3125,78.875,0.176758,-0.665039,-0.990723,0,0,5,-11,-11,-5,12,-2,3972
-1.98341,-0.900579,-0.0226831,75.8125,-41.0625,99,0.38623,-0.668457,-0.680176,-1,-1,13,3,-12,-7,-8,-9,3989
-1.98341,-0.900579,-0.0226831,75.8125,-41.0625,99,0.38623,-0.668457,-0.680176,-5,1,-4,-8,-2,2,-3,10,4005
-1.95994,-0.864548,-0.0176804,88.75,-35.1875,92.125,0.900391,-0.705566,-0.54248,5,-2,0,-14,6,6,9,-4,4021
-1.93711,-0.825643,0.00329702,110.938,-81.875,98.625,2.00635,-0.961914,-0.398438,15,-6,-2,-40,-22,-5,55,-13,4039
-1.90765,-0.748903,0.0326946,144.25,-131.625,186.25,2.9043,-0.905762,-0.169922,-17,-2,-23,30,20,3,-51,16,4058
-1.86041,-0.657743,0.082887,228.375,-185.188,214.875,3.28076,-1.08594,0.10498,6,3,2,-9,-4,6,28,-4,4075
-1.80368,-0.568249,0.124128,230.813,-160,223.063,2.91162,-0.943848,0.142578,2,3,0,-1,2,4,12,-3,4092
-1.78463,-0.487949,0.156848,101.688,-130.125,206.375,2.25684,-0.356445,0.414551,-2,2,-1,-1,-1,1,-5,7,4108
-1.78463,-0.487949,0.156848,101.688,-130.125,206.375,2.25684,-0.356445,0.414551,-4,-3,-5,0,8,-8,-5,-4,4125
-1.76822,-0.423187,0.180484,76.8125,-97.4375,169.375,2.01563,-0.37207,0.273926,-1,-3,-2,0,1,-5,2,-2,4142
-1.76199,-0.365971,0.198438,37.375,-78.375,151.375,2.05176,-0.199219,0.100098,0,-2,1,-1,-6,-9,-6,-3,4160
-1.7637,-0.312945,0.215133,11.1875,-73.375,140.625,1.62939,-0.050293,0.148438,0,-2,-1,1,1,-3,-8,3,4177
-1.76043,-0.266235,0.236761,23.875,-88.3125,138.625,1.16504,-0.0273438,0.17334,-1,0,0,2,-5,-2,0,-3,4194
-1.74784,-0.222034,0.26312,52.9375,-98.3125,125.75,0.825684,0.192871,0.120117,-3,-3,-2,0,3,0,-1,-4,4210
-1.73098,-0.185924,0.290918,63,-96.1875,100.125,0.601074,0.446289,0.136719,-1,-2,1,-3,-2,8,-5,-1,4228
-1.67908,-0.120221,0.362676,43.9375,-67.25,36.625,-0.234375,0.668457,0.344238,-1,1,2,-1,1,-2,-2,3,4302
-1.66286,-0.116494,0.377009,28.1875,-43.1875,-5,-0.281738,0.907715,0.436523,11,2,1,-6,0,-5,3,-4,4319
-1.64861,-0.130384,0.379048,14.25,-5.5,-46.625,-0.228516,1.01367,0.486328,-5,-3,-1,2,-11,2,-3,-2,4336
-1.64495,-0.162372,0.369144,-19.4375,30.875,-83.875,-0.0717773,0.912598,0.457031,13,9,0,6,10,-5,-23,0,4354
-1.64495,-0.162372,0.369144,-19.4375,30.875,-83.875,-0.0717773,0.912598,0.457031,-12,-5,-6,6,8,-6,-21,4,4372
-1.68353,-0.275183,0.326974,-88,89.5,-166.938,0.584473,0.662598,0.366211,-1,0,-2,-7,-7,-1,-5,1,4389
-1.68353,-0.275183,0.326974,-88,89.5,-166.938,0.584473,0.662598,0.366211,-21,-2,2,-2,-6,0,4,-3,4406
-1.72158,-0.35392,0.288905,-142.688,132.688,-210.313,1.83398,0.391113,0.0556641,-13,-6,-10,-6,4,-22,-22,2,4424
-1.75712,-0.456525,0.224558,-174.938,216.5,-262,3.05225,-0.390137,0.000488281,-5,7,-3,-3,8,-14,-1,-4,4441
-1.7865,-0.562291,0.159389,-175.25,220.563,-264.5,3.36328,-0.941406,0.155273,4,-1,-12,-2,-2,7,4,-2,4458
-1.78522,-0.659634,0.0934082,-105.438,211.25,-239.625,3.55664,-1.01465,-0.178711,3,-1,3,7,-8,3,13,-1,4475
-1.77983,-0.748099,0.0317503,-99,185.125,-219.688,3.08594,-0.711426,-0.143555,-7,-1,1,7,-16,-4,-5,-2,4492
-1.77983,-0.748099,0.0317503,-99,185.125,-219.688,3.08594,-0.711426,-0.143555,-7,-1,1,7,-16,-4,-5,-2,4508
-1.77489,-0.822127,-0.0198074,-90.375,145.813,-186.063,2.75244,-0.462891,-0.320801,-8,-3,1,3,10,17,-15,5,4525
-1.79724,-0.886778,-0.0588683,-148.375,111.438,-165.625,2.24023,-0.176758,-0.32373,-1,-1,1,1,-2,1,3,3,4544
-1.85842,-0.943145,-0.0860835,-233.813,88.5625,-131.375,1.65137,-0.244141,-0.423828,-1,0,1,3,2,3,-3,4,4560
-1.97498,-1.03336,-0.171025,-107.875,63.875,-45.375,0.510254,-0.729492,-0.570313,-3,-1,0,2,8,-7,-3,0,4624
-1.98707,-1.02881,-0.174476,-32.0625,34.375,-18.875,0.195801,-0.650879,-0.637695,0,0,-1,0,0,-6,-1,-2,4641
-1.99741,-1.00933,-0.158145,24.9375,-3.6875,6,-0.0336914,-0.581543,-0.694336,-5,-2,-2,-2,-3,-2,2,-7,4658
-2.00856,-0.981272,-0.126021,64.375,-29.875,16.875,-0.195313,-0.499512,-0.793457,2,-2,-1,-2,-4,1,-1,0,4675
-2.02348,-0.946846,-0.0851633,76.5625,-46.3125,19.375,-0.289551,-0.553711,-0.899902,-4,-2,-3,1,1,1,-10,-3,4692
-2.04177,-0.910243,-0.0468157,61.4375,-46.8125,23.4375,-0.212402,-0.619141,-0.987305,2,-5,-4,-9,0,-1,0,-2,4708
-2.04177,-0.910243,-0.0468157,61.4375,-46.8125,23.4375,-0.212402,-0.619141,-0.987305,1,-1,-2,-2,-1,-6,-3,-3,4725
-2.05965,-0.875,-0.0194243,37.8125,-39.5625,43.4375,0.0585938,-0.494629,-0.969727,-2,-3,-5,-12,-7,1,6,-2,4742
-2.07044,-0.837013,-0.00215577,28,-45,69.4375,0.225586,-0.38916,-0.762695,3,-2,7,-4,-7,-5,14,-3,4759
-2.06619,-0.792599,0.00569222,39.3125,-54.5625,91.1875,0.241699,-0.483887,-0.507813,11,0,7,5,5,3,22,-3,4776
-2.06619,-0.792599,0.00569222,39.3125,-54.5625,91.1875,0.241699,-0.483887,-0.507813,-12,-5,-7,-11,-6,0,-3,2,4795
-2.01022,-0.745391,0.00487633,94.625,-39.875,64.9375,1.73242,-0.921387,-0.292969,15,3,0,-10,-10,-7,14,-17,4813
-1.97078,-0.685345,0.0216809,144.75,-103.5,142.125,2.60791,-0.915527,-0.197754,-9,2,-8,-8,2,-4,-22,4,4828
-1.97078,-0.685345,0.0216809,144.75,-103.5,142.125,2.60791,-0.915527,-0.197754,19,1,6,-17,-4,-2,31,-18,4846
-1.91111,-0.604793,0.0570126,232,-159.063,186.125,3.04541,-0.975586,0.0566406,1,-2,4,12,8,4,1,1,4863
-1.85049,-0.514623,0.0974606,235.625,-172.813,216.688,3.00684,-0.92041,0.115723,-2,-2,1,-9,-15,8,20,4,4881
-1.81968,-0.266257,0.1984,9.875,-105.188,130.375,1.90088,-0.252441,0.0419922,1,-1,3,2,-10,-13,8,-7,4950
-1.81968,-0.266257,0.1984,9.875,-105.188,130.375,1.90088,-0.252441,0.0419922,-3,0,0,1,-7,3,-8,2,4967
-1.8112,-0.22028,0.232797,44.0625,-131.625,127.313,1.43896,-0.166504,0.189453,-4,-2,-3,0,0,17,-8,4,4984
-1.7808,-0.17648,0.271034,105.313,-137.438,116.688,1.08789,0.14502,0.199219,-3,-2,-1,-1,-1,3,-5,2,5001
-1.74186,-0.137165,0.311177,126.438,-136.188,102.25,0.73877,0.418945,0.247559,-4,-2,-3,0,-2,-13,0,-2,5019
-1.70213,-0.107312,0.346273,121.25,-113.188,77.375,0.396484,0.608887,0.342773,-2,2,4,2,-1,-5,4,-1,5036
-1.66016,-0.0866079,0.371947,96.6875,-82.625,53.625,-0.0102539,0.672852,0.517578,1,2,-3,-3,0,1,-3,-4,5053
-1.62784,-0.0676116,0.386093,53.375,-47,39.8125,-0.209961,0.685059,0.668457,6,-1,-1,-7,-1,3,-6,0,5071
-1.62784,-0.0676116,0.386093,53.375,-47,39.8125,-0.209961,0.685059,0.668457,4,-6,-3,-2,-2,-1,-2,0,5088
-1.61197,-0.0696781,0.38289,-44.5625,16.125,-27.5625,-0.0913086,0.888672,0.674805,-1,-3,-3,-2,1,-6,1,-14,5104
-1.61197,-0.0696781,0.38289,-44.5625,16.125,-27.5625,-0.0913086,0.888672,0.674805,-6,-9,-2,1,3,-1,2,-3,5122
-1.62866,-0.097763,0.367885,-85.125,43.5625,-64.9375,0.103516,0.900879,0.557129,-1,0,-3,-4,-4,-3,9,0,5139
-1.66462,-0.139556,0.345666,-116.375,70.8125,-107.688,0.287109,0.878418,0.434082,-4,2,3,-4,-6,0,1,-1,5156
-1.70839,-0.193481,0.315104,-142.938,102.125,-134.563,0.380859,0.811523,0.277344,-4,2,-6,7,6,-4,-50,12,5174
-1.75608,-0.262854,0.274756,-161.813,140.75,-162.625,0.772461,0.647949,0.101074,-16,-1,-5,3,-7,0,2,-6,5191
-1.75608,-0.262854,0.274756,-161.813,140.75,-162.625,0.772461,0.647949,0.101074,-3,-1,2,3,-7,0,28,-11,5208
-1.86225,-0.546751,0.0780088,-144.188,265.063,-204.75,3.81641,-1.26953,-0.237305,-13,0,2,9,-8,2,0,-6,5272
-1.83034,-0.625129,-0.000884839,-34.25,242.5,-165.063,3.06738,-1.23389,-0.23584,0,1,3,-6,-10,-3,8,-3,5289
-1.78934,-0.685541,-0.0631889,8.9375,178.5,-134.375,2.42432,-0.744629,-0.304688,-3,-4,-1,0,-3,3,-8,-1,5306
-1.7716,-0.734203,-0.11443,-45.0625,138,-113.438,2.20557,-0.205566,-0.274902,1,-2,-2,2,4,1,2,3,5324
-1.80238,-0.784024,-0.1552,-166.125,110.75,-98.0625,1.92188,0.0126953,-0.188477,4,-3,2,1,6,7,2,9,5341
-1.86491,-0.822723,-0.185648,-236.625,89.125,-77.0625,1.62695,-0.310059,-0.524902,1,0,-1,-5,2,-5,2,2,5358
-1.93192,-0.847495,-0.206804,-232.938,65.0625,-51,1.15283,-0.67627,-0.643555,1,0,-2,1,1,-6,3,-4,5375
-1.98385,-0.857013,-0.219243,-173.375,37,-20.25,0.65332,-0.797852,-0.598145,-1,-3,-2,2,-8,-8,-14,-2,5393
-1.98385,-0.857013,-0.219243,-173.375,37,-20.25,0.65332,-0.797852,-0.598145,1,0,0,3,0,0,8,-2,5411
-2.04161,-0.8238,-0.196673,-2.6875,-28.25,17.9375,0.135742,-0.543457,-0.637695,1,-2,-2,-1,-3,1,8,6,5429
-2.04161,-0.8238,-0.196673,-2.6875,-28.25,17.9375,0.135742,-0.543457,-0.637695,0,0,-2,-1,1,-2,-4,0,5446
-2.05403,-0.798738,-0.168969,45.1875,-44.875,21.375,-0.0102539,-0.344727,-0.726563,-3,-1,-1,-6,-7,-3,-4,-3,5463
-2.06646,-0.770915,-0.135377,61.3125,-53.1875,15.3125,-0.22168,-0.296387,-0.811523,1,-2,-2,2,6,4,-3,1,5480
-2.08127,-0.739194,-0.0980856,62.375,-59.1875,7.9375,-0.432617,-0.335938,-0.890625,0,-4,-2,-9,-5,2,12,-3,5497
-2.09755,-0.705387,-0.0632647,53.75,-61.0625,17,-0.310547,-0.362305,-0.962402,-3,0,-4,-6,-2,-3,-6,-4,5514
-2.11317,-0.678103,-0.034448,39.8125,-60.5,29.3125,0.0991211,-0.244141,-0.839844,8,-4,4,-2,6,2,31,-4,5531
-2.09014,-0.635448,0.0138798,61.25,-60.875,31.1875,1.45801,-0.942871,-0.488281,6,2,-5,-4,2,-2,-9,2,5600
-2.08056,-0.590195,0.0423891,74.625,-122.25,80.0625,2.59521,-1.0542,-0.319824,4,-3,8,-13,-12,-20,28,-13,5618
-2.03362,-0.519997,0.0833628,196.063,-182.25,131.313,2.76611,-1.06494,-0.0952148,-3,4,7,9,8,10,-5,4,5636
-1.96681,-0.438213,0.131659,255.375,-209.813,162.063,2.61377,-0.974609,0.216309,-9,1,8,-6,-9,5,9,-2,5652
-1.91046,-0.367405,0.170236,204.75,-168.063,152.875,2.43945,-0.739746,0.145996,3,2,0,8,-4,1,-8,-6,5669
-1.91046,-0.367405,0.170236,204.75,-168.063,152.875,2.43945,-0.739746,0.145996,-3,0,-8,11,4,2,-22,4,5686
-1.88824,-0.307592,0.191048,83.75,-108.625,143.938,2.27197,-0.252441,0.173828,-7,-2,-5,2,6,-1,0,-3,5703
-1.88061,-0.258988,0.207862,35.1875,-87.0625,118.188,2.19141,-0.500977,0.0727539,-2,-3,-2,5,3,2,-6,-2,5720
-1.87482,-0.208503,0.224963,28,-89,123.188,1.85205,-0.486328,0.0952148,-4,0,-1,-2,0,-4,-6,5,5737
-1.85786,-0.164339,0.247137,56.5,-104.438,125.938,1.44629,-0.168457,0.171387,3,-1,-2,2,-1,14,1,3,5755
-1.82714,-0.12147,0.272098,95.5625,-107.125,118.875,1.18896,0.0859375,0.154785,-2,-2,-1,1,-1,4,-2,2,5771
-1.78976,-0.0803321,0.300391,113.25,-109.75,109.813,0.838379,0.233398,0.15918,1,-1,-1,3,-5,-12,3,0,5789
-1.78976,-0.0803321,0.300391,113.25,-109.75,109.813,0.838379,0.233398,0.15918,-3,-3,-1,2,-4,-13,-5,-1,5806
-1.75104,-0.0455026,0.329591,114.438,-103.875,90.3125,0.51416,0.428223,0.18457,0,-9,-1,-4,1,-1,9,-6,5822
-1.71649,-0.0166365,0.357329,100.063,-92.6875,73.1875,0.257813,0.599609,0.149414,-1,-4,-2,0,-1,1,-1,-4,5840
-1.68119,0.0102393,0.383119,85.9375,-82.5625,64.5,-0.0239258,0.630371,0.303223,-3,0,-1,1,5,2,-5,-1,5857
-1.61228,0.0454361,0.428975,6.8125,-22.0625,-26.3125,-0.220703,0.978027,0.531738,-2,0,-2,0,2,-2,13,-4,5927
-1.61838,0.0229333,0.426215,-43.25,11.625,-65.375,0.000488281,1.07764,0.437012,0,-3,6,0,-4,0,3,-9,5943
-1.64935,-0.0162238,0.414344,-95.125,40.875,-105.688,0.239746,1.0166,0.466309,-11,-18,-17,7,-2,-4,-14,5,5960
-1.69935,-0.0793318,0.390444,-147.125,84.625,-155,0.982422,0.743652,0.149414,9,16,0,-1,-1,2,-8,-1,5978
-1.76125,-0.163984,0.35382,-190.125,141.563,-223.25,3.03125,-0.0166016,-0.260254,14,-4,8,-18,-3,-17,43,-15,5995
-1.81372,-0.264849,0.298634,-184.375,213.375,-249.375,2.9209,-1.0332,0.100098,-11,-1,-8,-8,7,-17,-11,2,6011
-1.84072,-0.363362,0.242574,-127,219.813,-234.375,3.33057,-0.94043,-0.00732422,10,0,3,-3,-4,5,32,-4,6028
-1.84072,-0.363362,0.242574,-127,219.813,-234.375,3.33057,-0.94043,-0.00732422,3,0,2,-1,-6,3,10,-4,6046
-1.85099,-0.454487,0.186355,-93.6875,213.313,-211.313,3.26025,-0.813477,-0.248535,1,2,-4,5,-3,7,4,-3,6063
-1.84761,-0.535521,0.132043,-64.5625,195.313,-185.75,3.12988,-0.639648,-0.359863,1,4,2,0,0,7,1,4,6081
-1.84925,-0.605159,0.0858783,-75.875,162.125,-161.375,2.72021,-0.314453,-0.449219,3,2,1,-8,0,1,2,-3,6098
-1.87876,-0.663829,0.050325,-144.938,126.938,-137.25,2.0918,-0.206543,-0.489746,-2,2,3,-2,-8,-2,-2,9,6115
-1.93366,-0.717149,0.023105,-203,106.313,-110.5,1.45654,-0.32666,-0.469238,2,-1,2,1,3,11,3,2,6133
-1.98689,-0.757482,-0.00351826,-200.875,96.875,-81,0.964355,-0.525391,-0.478516,1,-3,1,-1,-9,-9,-4,0,6150
-1.98689,-0.757482,-0.00351826,-200.875,96.875,-81,0.964355,-0.525391,-0.478516,2,-1,1,-1,4,5,-1,6,6167
-2.02399,-0.786028,-0.0299573,-156.75,86.9375,-52.5625,0.522949,-0.561523,-0.498535,-1,-4,-2,2,1,-6,5,7,6184
-2.05602,-0.752637,-0.0380787,58.9375,-9.8125,0.125,-0.408691,-0.534668,-0.83252,0,-1,-3,-7,-4,-2,-8,3,6255
-2.06499,-0.723167,-0.00933411,63,-36.375,2.875,-0.416504,-0.542969,-1.01074,-2,-1,3,-1,1,-2,-2,-14,6273
-2.06499,-0.723167,-0.00933411,63,-36.375,2.875,-0.416504,-0.542969,-1.01074,7,-1,3,-7,-3,1,25,-7,6289
-2.07899,-0.68891,0.0212193,57.125,-48.1875,21,-0.0859375,-0.664063,-1.22217,-3,-3,-3,0,4,-5,-24,-5,6306
-2.09236,-0.654307,0.0440204,49.6875,-45.6875,53.5,0.301758,-0.54541,-1.29932,-1,-1,-10,-1,0,-4,-24,5,6323
-2.09353,-0.619287,0.0535606,38.5,-48.875,78.4375,0.404785,-0.436035,-0.772461,0,-3,9,2,-13,-8,25,-11,6341
-2.07825,-0.594465,0.047102,34.5625,-28.3125,82.625,0.876465,-0.794922,-0.46875,-25,-4,-17,7,8,1,-48,10,6359
-2.07205,-0.58037,0.0550503,23.3125,-66.375,71.8125,1.60303,-0.977051,-0.412109,4,-5,0,-17,-20,-19,18,-18,6375
-2.05749,-0.516916,0.0784797,77.125,-136.875,132.938,2.70801,-1.01123,-0.251953,4,-2,-22,-3,7,-15,-19,-1,6393
-2.05749,-0.516916,0.0784797,77.125,-136.875,132.938,2.70801,-1.01123,-0.251953,1,3,-2,-1,-4,1,6,-3,6408
-2.0152,-0.428787,0.111887,164.75,-189.438,187.563,3.05029,-1.27002,0.0585938,-5,4,-1,12,9,12,9,4,6427
-1.94943,-0.333158,0.153071,232.563,-210.5,207.75,3.1377,-1.04492,0.298828,-9,2,-2,-7,-9,5,-16,15,6444
-1.90216,-0.250685,0.17937,157.063,-150.063,196.313,2.68848,-0.705078,0.166992,16,-3,1,-16,-2,8,31,-7,6461
-1.87732,-0.179247,0.198691,82.625,-115.688,177.375,2.14258,-0.339355,0.320313,-2,-2,0,-1,2,-1,9,-9,6479
-1.85787,-0.11294,0.216355,63.625,-103.375,167.375,2.07861,-0.375977,0.125977,1,-1,0,5,0,-5,-1,-7,6496
-1.85787,-0.11294,0.216355,63.625,-103.375,167.375,2.07861,-0.375977,0.125977,4,1,2,-5,7,-6,6,-5,6513
-1.83401,0.0453923,0.274217,28.5,-111.25,137.813,0.990723,0.122559,0.141602,-1,-3,-1,1,-2,5,-3,-3,6570
-1.81108,0.0880377,0.300869,59.4375,-107.188,110.625,0.714355,0.289063,0.125,2,-1,0,1,-1,-7,3,0,6587
-1.78046,0.114407,0.327668,77.4375,-96.5,80.1875,0.415039,0.465332,0.132324,2,-1,0,-1,0,-13,1,-3,6604
-1.74883,0.138054,0.354108,75.75,-87.25,58.5625,0.188965,0.636719,0.192871,-2,0,-3,-4,3,-2,-2,0,6622
-1.71897,0.157452,0.375675,56.3125,-64.75,34.25,-0.0356445,0.752441,0.416016,-7,-2,0,-1,1,-2,-5,0,6639
-1.69257,0.167509,0.388735,37,-31.875,0.0625,-0.199219,0.929199,0.61377,-3,0,-3,1,3,1,1,3,6657
-1.67094,0.163452,0.393294,20.8125,-1.6875,-41.5,-0.275391,0.962402,0.689453,6,2,-1,0,4,2,-3,-4,6672
-1.67094,0.163452,0.393294,20.8125,-1.6875,-41.5,-0.275391,0.962402,0.689453,21,4,-7,15,8,0,-7,3,6691
-1.65778,0.144736,0.388821,-0.0625,25.625,-75.75,-0.234375,0.807129,0.662109,9,-2,7,3,-3,-4,-2,-12,6708
-1.66899,0.10537,0.374401,-35.3125,52.625,-109.563,0.0136719,0.828125,0.578125,-1,3,1,5,-1,-2,0,-2,6724
-1.68568,0.0502968,0.350332,-47.5625,85.1875,-145.875,0.255371,0.699707,0.390137,-33,-6,-13,13,4,-2,-26,3,6740
-1.68568,0.0502968,0.350332,-47.5625,85.1875,-145.875,0.255371,0.699707,0.390137,13,5,6,3,-4,4,12,-2,6756
-1.79301,-0.100621,0.278568,-186.438,151.938,-212.313,3.66357,0.424805,-0.436523,-18,-9,-1,-4,-4,14,3,0,6773
-1.79301,-0.100621,0.278568,-186.438,151.938,-212.313,3.66357,0.424805,-0.436523,16,7,-5,-12,8,-14,-19,-3,6790
-1.8508,-0.211378,0.218095,-192.563,245.313,-265.188,3.09912,-0.813965,-0.100586,1,3,-3,1,-18,4,20,-4,6808
-1.88796,-0.311963,0.165444,-146,224.188,-232.813,3.78369,-1.2373,-0.111328,5,3,-6,5,-2,8,8,2,6826
-1.9333,-0.598537,0.0195888,-161,104.375,-136.438,2.10547,-0.130371,-0.306641,0,-2,2,-2,2,1,-2,2,6900
-2.00704,-0.648569,0.0100707,-224.313,72.125,-108.625,1.47803,-0.337891,-0.407715,2,-1,1,0,-2,13,-3,1,6917
-2.07192,-0.680978,0.00470758,-193.438,52.125,-73,0.984375,-0.651855,-0.51123,-1,-3,-3,5,-6,-8,-5,2,6934
-2.11793,-0.702209,0.00210455,-136.25,36.375,-50.5625,0.55957,-0.657227,-0.431152,0,0,-2,2,-1,-15,-3,-4,6952
-2.11793,-0.702209,0.00210455,-136.25,36.375,-50.5625,0.55957,-0.657227,-0.431152,0,-1,0,-2,1,-7,11,7,6970
-2.14502,-0.711012,0.00497846,-69.6875,17.4375,-35.6875,0.331055,-0.558594,-0.416016,1,0,-2,0,-8,-5,-1,-3,6988
-2.15871,-0.707632,0.013629,-15.8125,-2.875,-17.8125,0.155273,-0.487305,-0.49707,0,-1,1,-2,4,6,1,-2,7005
-2.16115,-0.693302,0.0261057,27.6875,-17.375,-6,-0.0268555,-0.540527,-0.615723,0,-2,-2,-2,0,1,0,-2,7022
-2.15573,-0.67344,0.0406663,55.875,-23.5,-2.875,-0.151367,-0.594238,-0.696777,-2,-2,-2,-1,3,0,-5,-4,7038
-2.14936,-0.653744,0.0552443,59.625,-21.625,-4.6875,-0.189453,-0.591797,-0.724609,-1,0,-1,-3,1,-5,-3,-2,7054
-2.14408,-0.63879,0.063627,48.25,-4.3125,-2.6875,-0.0898438,-0.583008,-0.773926,-2,-1,-5,-5,-1,-4,-1,0,7072
-2.14408,-0.63879,0.063627,48.25,-4.3125,-2.6875,-0.0898438,-0.583008,-0.773926,-4,0,-2,2,0,-4,-15,1,7088
-2.14318,-0.622735,0.0681449,31.875,-1.1875,12.0625,0.0356445,-0.560547,-0.812988,1,-3,2,-3,-2,-2,4,-5,7105
-2.13744,-0.597669,0.0688053,39.0625,-15.9375,49.75,0.222168,-0.523438,-0.78125,-8,3,4,7,-2,-2,-9,6,7122
-2.11365,-0.565366,0.059447,55.625,-27.875,90.25,0.504883,-0.697754,-0.460449,4,-7,7,-12,-11,13,31,-10,7139
-2.07405,-0.546382,0.0423314,74.9375,-18.5,99.75,1.26025,-0.941406,-0.278809,-17,0,2,20,-6,-4,-34,9,7156
-1.92271,-0.319894,0.0854848,211.813,-167.875,219.438,3.07129,-0.837891,0.0366211,5,0,0,15,10,13,2,-2,7229
-1.87885,-0.230571,0.10419,140.313,-131.938,225.688,2.80127,-0.44873,0.0258789,3,0,-1,-3,4,2,15,-6,7246
-1.85597,-0.146115,0.121863,74.8125,-118.563,217.063,2.30322,-0.120605,0.34082,1,-1,2,0,-2,-2,6,-6,7264
-1.82897,-0.0723919,0.144156,84.5625,-117.938,186.375,2.07813,-0.236328,0.116699,-9,-3,-2,-4,-2,-5,-21,6,7281
-1.80921,-0.0112224,0.170282,59.375,-115.438,151.688,1.85156,-0.163574,0.00146484,-1,0,-4,0,-3,-1,-5,-2,7298
-1.78847,0.0453169,0.202389,57.8125,-126.375,136.938,1.55859,-0.00683594,0.0917969,-4,-1,-4,3,-17,-10,-9,5,7315
-1.78847,0.0453169,0.202389,57.8125,-126.375,136.938,1.55859,-0.00683594,0.0917969,-2,-3,-2,-2,17,-4,-4,1,7332
-1.75789,0.0902683,0.241325,78.25,-139.563,125.938,1.3501,0.112793,0.109375,2,-1,-1,-1,-11,5,0,-4,7349
-1.7199,0.133502,0.285085,92.5,-146.375,118.813,1.07861,0.226563,0.158691,0,-2,1,0,2,-5,-4,-4,7366
-1.67451,0.169671,0.33067,105.625,-141.75,96.75,0.667969,0.318359,0.275879,-1,-5,0,0,-9,-10,3,-3,7383
-1.62538,0.195329,0.374356,111.75,-127.375,65.4375,0.192871,0.372559,0.404297,1,7,1,1,-4,-4,1,2,7399
-1.57785,0.212463,0.412784,103.5,-107.313,40.5625,-0.192871,0.492676,0.626465,-13,-10,-3,-2,-2,-5,-5,-2,7416
-1.57785,0.212463,0.412784,103.5,-107.313,40.5625,-0.192871,0.492676,0.626465,6,6,2,-1,2,-5,-3,-1,7433
-1.52675,0.231902,0.439849,81.9375,-64.625,18,-0.395996,0.815918,0.689941,-10,-11,-7,0,1,-1,-1,-5,7450
-1.49666,0.242408,0.448235,29.625,-11.4375,-8.375,-0.336426,1.09375,0.700195,12,3,-2,-6,-4,-5,9,-6,7467
-1.4977,0.238702,0.439407,-40.3125,32.125,-42.75,-0.192383,1.15039,0.583008,-6,0,-9,-6,1,-2,-7,0,7484
-1.6323,0.084912,0.377204,-160.625,73.375,-190.563,0.785156,0.900391,-0.0771484,7,4,0,6,9,11,-11,4,7553
-1.7118,0.00351862,0.349921,-224.313,101.563,-224.25,2.64209,0.22168,-0.55127,-12,-2,-6,3,14,-7,-2,0,7569
-1.79313,-0.0953668,0.295771,-240.188,203.938,-251.25,2.92383,-0.847656,-0.256348,-2,-3,-8,6,7,7,-27,3,7587
-1.83269,-0.195799,0.246222,-134.063,205.688,-245.813,3.43848,-0.992676,-0.043457,0,-3,0,5,-18,-2,23,-3,7604
-1.84058,-0.28075,0.197459,-55.875,194.875,-199.313,3.28174,-1.12207,-0.342285,0,1,4,-8,-6,3,-7,4,7622
-1.83203,-0.352769,0.154825,-13.5625,166.5,-168.875,2.98584,-0.816895,-0.28418,-1,4,1,-6,-5,-4,6,-3,7639
-1.84151,-0.413836,0.121597,-62.625,131.125,-145.563,2.60352,-0.324219,-0.356934,-7,1,1,-7,-2,-1,-1,2,7656
-1.84151,-0.413836,0.121597,-62.625,131.125,-145.563,2.60352,-0.324219,-0.356934,1,-1,-1,-1,7,7,-9,1,7673
-1.89018,-0.467822,0.0965643,-170.313,107.063,-129.313,2.10303,-0.0859375,-0.341797,6,0,3,0,-1,6,5,-6,7690
-1.97149,-0.521837,0.0784825,-254.313,92.375,-110.25,1.50391,-0.294434,-0.355957,-2,-2,1,2,0,-2,-2,-14,7707
-2.04565,-0.564917,0.0586921,-240.063,93.25,-82.3125,1.03955,-0.467773,-0.398438,1,-2,2,4,-1,-12,1,12,7724
-2.10367,-0.596609,0.0407749,-192.188,82,-56.6875,0.526855,-0.48291,-0.433594,1,-2,-2,2,2,-3,-10,4,7741
-2.1381,-0.61657,0.0280985,-118,57.5,-34.5,0.318848,-0.470703,-0.452637,0,-1,1,3,3,-5,1,1,7758
-2.1381,-0.61657,0.0280985,-118,57.5,-34.5,0.318848,-0.470703,-0.452637,-1,-1,-3,1,2,1,-1,-6,7775
-2.15565,-0.624692,0.0208996,-53.75,41.5625,-22.625,0.167969,-0.488281,-0.503418,3,-1,-1,-1,1,-4,-4,1,7792
-2.15672,-0.623544,0.0164605,0.375,28.375,-9.3125,0.0283203,-0.470703,-0.545898,-3,0,0,-4,-4,-5,5,-2,7810
-2.13072,-0.583489,0.0255684,26.625,14,16.5,0.128418,-0.649414,-1.16406,-4,-4,-2,3,-7,-4,-3,-3,7885
-2.12193,-0.563378,0.0162226,35.9375,15.625,48.375,0.231445,-0.644531,-0.904785,-8,-2,-13,-6,-5,-6,-14,6,7903
-2.12584,-0.541357,0.00804939,-9.875,-7,64.875,0.644531,-0.884766,-0.810059,-5,-3,-5,5,1,0,-6,-8,7920
-2.13848,-0.533271,0.0134942,-32.0625,-63.1875,71.0625,1.78955,-0.960449,-0.540527,-8,-2,-2,-3,-8,-2,-9,-7,7937
-2.13848,-0.533271,0.0134942,-32.0625,-63.1875,71.0625,1.78955,-0.960449,-0.540527,-10,-4,-6,2,8,12,-17,7,7954
-2.12526,-0.475792,0.0258068,54.75,-113.875,122.875,2.37988,-0.879883,-0.309082,-13,-3,-16,-5,5,-4,-32,13,7971
-2.09001,-0.393145,0.0554936,137.063,-187.688,164.063,2.95166,-1.03369,0.0712891,-7,-3,-2,18,5,3,-7,1,7989
-2.02914,-0.286287,0.0915601,209,-230.188,225.125,3.29492,-0.730957,0.302734,-4,2,1,10,2,12,-2,1,8007
-1.96137,-0.183441,0.127503,217.813,-213.063,227.375,2.82422,-0.970703,0.0493164,5,2,4,-5,-17,0,-4,4,8024
-1.90533,-0.0842619,0.159891,173.438,-187,233.563,2.3667,-0.302734,0.48584,-7,2,-2,2,3,1,-4,-2,8041
-1.84564,0.00399673,0.191621,174.625,-162.75,213.938,2.19971,0.0395508,0.0581055,-2,1,0,-5,6,-4,-1,-2,8058
-1.84564,0.00399673,0.191621,174.625,-162.75,213.938,2.19971,0.0395508,0.0581055,0,-1,-3,-7,7,2,4,-1,8074
-1.81647,0.0850923,0.219906,79.9375,-138.188,203.813,1.99854,0.121582,0.0820313,0,1,0,-1,0,6,3,1,8091
-1.7977,0.161068,0.253222,41.6875,-143.188,189.563,1.53613,0.228516,0.207031,2,-1,0,-1,-1,-5,-1,-4,8108
-1.76679,0.221682,0.297192,60.5,-160.5,161.125,1.08789,0.0883789,0.246582,-5,-1,2,-1,-3,-10,-3,1,8124
-1.72111,0.271403,0.34098,96.9375,-145.625,131.313,0.817871,0.288574,0.221191,5,3,1,-3,0,-6,-6,-3,8140
-1.57694,0.362645,0.421915,78.125,-45.625,50.3125,-0.0991211,0.925781,0.477539,-4,-4,-4,-2,-2,1,4,-5,8217
-1.52918,0.399386,0.442483,-0.8125,-4.1875,-10.25,-0.369141,0.993164,0.48877,4,-3,4,6,-2,2,3,-7,8235
-1.52918,0.399386,0.442483,-0.8125,-4.1875,-10.25,-0.369141,0.993164,0.48877,-3,-1,3,-6,0,5,10,-4,8253
-1.54276,0.395772,0.438557,-63.5,20.8125,-45.1875,-0.123535,1.03076,0.436523,8,-1,2,-9,6,2,12,0,8269
-1.5846,0.363824,0.421555,-108.5,47.3125,-96.1875,0.129395,1.05615,0.423828,2,-1,-5,10,3,-9,-20,1,8286
-1.64318,0.311895,0.395021,-146.063,79.3125,-143.188,0.448242,0.899414,0.304199,-5,-5,-6,-13,-4,4,-4,3,8303
-1.71626,0.239795,0.360227,-182.313,117.938,-195.063,1.59619,0.646484,-0.0668945,9,-3,-1,-19,2,6,30,-6,8320
-1.71626,0.239795,0.360227,-182.313,117.938,-195.063,1.59619,0.646484,-0.0668945,10,-7,-11,-1,6,8,3,-10,8336
-1.80325,0.142723,0.311759,-223,186.313,-248.188,3.12451,-0.255371,-0.192383,12,16,-4,16,19,-10,-17,4,8353
-1.87187,0.0269091,0.254904,-183.25,244.438,-277.688,3.11475,-0.956543,0.0839844,-12,-15,-4,-10,-13,2,22,-2,8370
-1.90572,-0.0762568,0.205394,-100.375,227.625,-236.438,3.20264,-1.08936,0.0322266,-7,0,2,8,-18,-2,5,-3,8387
-1.92955,-0.167401,0.158935,-84.25,213,-200.688,3.04688,-0.640137,-0.254395,-5,3,1,2,-7,-5,-11,-10,8404
-1.95718,-0.251945,0.116021,-104.938,200.313,-182.313,2.89746,-0.224609,-0.272461,-9,0,2,-4,16,6,-7,-2,8421
-1.9955,-0.331922,0.0827666,-137.5,174.438,-174.688,2.85889,-0.186523,-0.60791,-4,1,0,0,4,-3,-7,-13,8438
-1.9955,-0.331922,0.0827666,-137.5,174.438,-174.688,2.85889,-0.186523,-0.60791,-3,-1,0,-3,-3,-4,-2,2,8455
-2.06864,-0.401456,0.0627941,-230.375,136.563,-154.938,2.17236,-0.171875,-0.536133,-1,-1,0,-2,-2,12,-2,2,8472
-2.27141,-0.533925,0.0366479,-123.25,68.0625,-47.6875,0.367676,-0.62207,-0.550781,0,-1,-5,-3,-5,-6,-6,4,8538
-2.28393,-0.544693,0.032577,-37.625,39.625,-27,0.209473,-0.538086,-0.557129,5,0,-2,-2,-3,2,0,-4,8554
-2.27287,-0.546595,0.0281255,30.8125,30.3125,-13.8125,0.0703125,-0.544434,-0.585938,0,-2,-2,-2,0,0,-19,2,8572
-2.24995,-0.539764,0.0264769,71.3125,16.9375,-6.5,-0.104492,-0.545898,-0.614746,-5,1,-2,1,-1,3,2,-5,8589
-2.22756,-0.527281,0.0369568,98.5,-4.375,-18.125,-0.293945,-0.479004,-0.769043,0,-3,-1,-4,-1,-1,-3,-3,8605
-2.20193,-0.525073,0.0522531,103.063,-21.875,-26.5625,-0.318359,-0.62207,-1.06396,3,-9,-4,-16,-6,-1,13,-7,8624
-2.20262,-0.502619,0.0689495,55.625,-31.375,5.25,0.0185547,-0.691895,-1.19482,-11,-2,-5,-9,-6,-6,-9,-5,8641
-2.20262,-0.502619,0.0689495,55.625,-31.375,5.25,0.0185547,-0.691895,-1.19482,9,-4,-2,-14,-12,-4,14,1,8658
-2.20182,-0.483827,0.0665445,35.625,-10.5625,57.75,0.41748,-0.32373,-0.959961,-1,-1,0,2,3,2,4,-1,8674
-2.17135,-0.470462,0.054069,70.75,-3.75,60.1875,0.475586,-0.42627,-0.291016,-1,-1,0,2,3,2,4,-1,8691
-2.13964,-0.442121,0.0415114,57.125,-22.125,75.6875,0.503906,-1.2124,-0.442871,-2,-3,-3,0,-6,-3,10,-13,8707
-2.11741,-0.390344,0.0424548,64.8125,-80.6875,124.75,2.06836,-1.15381,-0.314941,5,-1,3,-3,2,-24,2,-5,8724
-2.0592,-0.318263,0.0467246,171.063,-112.125,173.75,2.54395,-0.78125,-0.192871,0,0,1,0,-3,19,-3,3,8740
-2.00029,-0.226451,0.0675509,184.688,-168.438,210.625,3.0874,-0.865234,0.140137,1,-6,-1,1,-7,5,16,-4,8759
-1.93848,-0.128548,0.0924781,190,-173.938,231.438,3.24072,-0.609375,0.273438,1,-6,-1,1,-7,5,16,-4,8775
-1.93848,-0.128548,0.0924781,190,-173.938,231.438,3.24072,-0.609375,0.273438,-2,1,0,0,-11,4,-9,5,8793
-1.79702,0.22868,0.209201,48,-111.938,150.188,1.3418,-0.0561523,0.257324,6,3,0,0,8,0,4,-2,8873
-1.79702,0.22868,0.209201,48,-111.938,150.188,1.3418,-0.0561523,0.257324,6,3,0,0,8,0,4,-2,8890
-1.75662,0.27918,0.238429,91.125,-111.438,141.875,1.06592,0.0561523,0.227051,1,1,0,0,-1,-6,-4,-1,8907
-1.75662,0.27918,0.238429,91.125,-111.438,141.875,1.06592,0.0561523,0.227051,-4,0,0,1,-2,-1,-6,5,8925
-1.7081,0.322806,0.268877,110.875,-103.188,120.563,0.765137,0.32373,0.182617,0,0,0,0,7,-2,-1,-4,8943
-1.6341,0.39056,0.328053,54.625,-83.8125,78.875,0.108398,0.695313,0.134766,-2,-3,-4,-4,-8,-6,-5,2,8959
-1.60794,0.42398,0.358887,35.25,-82.3125,56.75,-0.230469,0.739258,0.11084,-1,-4,1,0,-5,-3,3,-5,8976
-1.58549,0.455649,0.382822,23.6875,-57.625,31.875,-0.554688,0.780762,0.20166,3,0,6,1,-6,-16,8,-6,8994
-1.56976,0.473075,0.399617,1.9375,-32.0625,-6.25,-0.442871,0.937988,0.362305,0,-5,-5,-9,-3,5,-8,6,9010
-1.56976,0.473075,0.399617,1.9375,-32.0625,-6.25,-0.442871,0.937988,0.362305,4,6,-5,11,6,8,2,6,9028
-1.55934,0.467107,0.408771,-7.75,-11,-57.5625,-0.186523,0.964844,0.416504,12,0,10,-6,-1,0,16,-10,9045
-1.56182,0.432429,0.399787,-4.5,26.25,-102.688,0.181641,0.833496,0.554199,4,6,3,-2,2,2,-11,7,9061
-1.5784,0.384429,0.378478,-30.75,59.3125,-135.563,0.40918,0.695801,0.47998,-23,-4,-14,13,-5,-3,-40,13,9078
-1.6304,0.308932,0.339166,-112.438,113.063,-193.25,1.34033,0.470703,0.155762,-1,-5,-2,1,-2,-1,0,-3,9097
-1.705,0.213856,0.290234,-177.25,161.5,-258.188,3.28174,-0.396973,-0.00244141,11,8,-8,-7,10,-16,-11,3,9115
-1.705,0.213856,0.290234,-177.25,161.5,-258.188,3.28174,-0.396973,-0.00244141,-11,-11,-4,7,2,-1,7,-8,9131
-1.87178,-0.132362,0.111646,-95.4375,177.063,-183.438,2.82422,-0.371094,-0.232422,-9,-6,0,3,-12,-1,6,-11,9198
-1.91353,-0.202499,0.0768112,-136.625,156.875,-159.25,2.33398,-0.237793,-0.228516,-6,-2,1,2,-7,-5,-5,-1,9214
-1.97559,-0.265875,0.0508772,-195.063,133.875,-143.063,1.93555,-0.229492,-0.328613,-4,-2,-1,1,5,2,-14,7,9232
-1.97559,-0.265875,0.0508772,-195.063,133.875,-143.063,1.93555,-0.229492,-0.328613,-2,-2,-3,1,3,3,-3,3,9249
-2.04733,-0.335019,0.0290022,-222.313,130.063,-134.563,1.46387,-0.40918,-0.335938,0,-2,0,-1,-1,12,5,4,9265
-2.10564,-0.398615,0.00715513,-188.438,134.375,-120.5,1.02051,-0.513672,-0.381348,-3,-3,-2,-1,-2,-12,-9,0,9283
-2.14636,-0.456696,-0.0197179,-147.063,144.75,-99.4375,0.660645,-0.486328,-0.423828,0,-2,-2,-3,-1,-8,-2,0,9301
-2.17077,-0.506826,-0.0450509,-102.375,133.125,-82.0625,0.432129,-0.413574,-0.390625,0,-3,-2,-1,-3,-5,-5,-2,9318
-2.17912,-0.549866,-0.0686379,-56,119.563,-68.875,0.279785,-0.438477,-0.463867,8,0,-2,-5,1,-1,-2,24,9336
-2.17912,-0.549866,-0.0686379,-56,119.563,-68.875,0.279785,-0.438477,-0.463867,-4,-1,-2,-1,0,1,-7,-2,9352
-2.17304,-0.584881,-0.0925982,-17.4375,109,-53.5625,0.0991211,-0.518066,-0.532715,-2,-1,5,1,3,-1,1,-2,9369
-2.1583,-0.601988,-0.111185,21.625,90.5,-43.6875,-0.121582,-0.555664,-0.566895,3,-1,0,-4,0,-3,15,-2,9386
-2.1421,-0.611609,-0.123502,40.125,69.0625,-35.5,-0.102051,-0.589844,-0.66748,1,0,0,-2,-2,-1,8,-5,9403
-2.12239,-0.625608,-0.136315,50.9375,67.25,-29.625,0.254883,-0.57666,-0.687012,-4,1,-3,-2,5,1,2,-1,9420
-2.08374,-0.642738,-0.157726,86.0625,77.6875,-17.5625,0.415527,-0.495605,-0.51416,4,2,-12,-11,-8,-5,5,-3,9438
-2.02728,-0.659455,-0.189438,105.125,84.5,-7.375,0.544922,-0.495117,-0.139648,6,3,2,-4,-8,-4,2,-4,9456
-1.84636,-0.646188,-0.265744,136.188,-36.5,104.625,1.65039,-0.40625,0.277344,5,-4,1,-13,-15,3,17,2,9523
-1.8317,-0.584718,-0.241247,82.375,-101.813,154.438,2.23584,-0.566895,0.223633,3,-5,0,-13,-5,-6,4,1,9542
-1.82474,-0.513519,-0.211884,63.9375,-121.625,179.188,2.33643,-0.161621,0.433105,-5,1,-4,9,9,1,-23,9,9558
-1.82474,-0.513519,-0.211884,63.9375,-121.625,179.188,2.33643,-0.161621,0.433105,5,2,3,0,1,-1,8,-7,9575
-1.82805,-0.34943,-0.115406,46.875,-197.875,212.688,1.90967,-0.29248,0.241211,4,9,4,-15,-8,-3,5,1,9592
-1.82805,-0.34943,-0.115406,46.875,-197.875,212.688,1.90967,-0.29248,0.241211,-3,-5,-10,-3,-2,-1,3,-3,9608
-1.81909,-0.248648,-0.0589467,73.5625,-222.188,240.75,1.9917,-0.0317383,0.365234,-3,1,1,-2,-2,3,-6,3,9625
-1.79711,-0.148129,0.000314604,96.3125,-230,241.125,1.97754,0.110352,0.352051,1,1,-1,-5,-3,-5,5,-1,9642
-1.7758,-0.0519512,0.0621205,78.625,-231.188,231.5,1.78271,0.3125,0.355957,-2,1,-2,13,8,1,-15,9,9661
-1.75554,0.0386495,0.125432,59.4375,-228.813,219.5,1.46191,0.326172,0.384766,-7,-3,-2,-2,-3,-7,-6,0,9678
-1.72757,0.118516,0.189022,58.25,-220.125,211.875,1.0625,0.200684,0.460449,0,-1,-6,-2,-13,-5,-4,-2,9695
-1.68684,0.191699,0.247177,82,-192.688,200,0.910156,0.156738,0.508301,-2,-2,0,0,0,6,-3,1,9713
-1.68684,0.191699,0.247177,82,-192.688,200,0.910156,0.156738,0.508301,1,-2,-1,-4,0,0,4,2,9730
-1.63522,0.258512,0.296471,108.25,-153.438,186.375,0.584961,0.306641,0.498535,-8,-2,-5,4,8,-2,0,-1,9747
-1.58878,0.316303,0.334231,94.75,-108.063,160.875,0.201172,0.638672,0.476074,0,-1,-3,-1,-1,-1,-4,1,9764
-1.55383,0.368034,0.362348,63.875,-72.9375,142.438,0.0366211,1.05078,0.543945,3,0,1,1,1,-4,7,-6,9781
-1.54367,0.435154,0.377341,-70.3125,39.5625,-47.375,-0.0283203,1.32861,0.651855,-6,-9,-9,-15,-8,-5,21,-3,9837
-1.57803,0.395221,0.348067,-73.875,79.375,-114.563,0.446777,0.986816,0.587402,1,4,3,9,0,-4,-21,6,9854
-1.57803,0.395221,0.348067,-73.875,79.375,-114.563,0.446777,0.986816,0.587402,0,-3,4,-9,-5,-3,14,-8,9871
-1.70101,0.238861,0.224322,-118.313,236.25,-226.875,2.91797,-0.45459,0.0292969,8,-5,-18,12,19,11,-13,0,9888
-1.70101,0.238861,0.224322,-118.313,236.25,-226.875,2.91797,-0.45459,0.0292969,-17,-1,-5,-16,-10,-3,1,1,9904
-1.74095,0.146204,0.150301,-73.625,246.063,-231.5,3.13574,-1.10986,0.605469,-7,-3,-9,8,-22,-1,-20,5,9922
-1.73825,0.0552424,0.0837775,26.5625,230.688,-225.25,3.20117,-1.07275,0.36377,-8,-1,-1,1,-1,8,4,-2,9939
-1.73298,-0.0269805,0.0228928,17.875,211.063,-204.063,2.82227,-0.595215,0.242676,-5,0,-6,-2,6,4,-23,7,9956
-1.74832,-0.10677,-0.0315403,-54.5,192.063,-198.938,2.63184,-0.0825195,0.307617,2,1,-4,-5,-17,-12,-6,0,9974
-1.74832,-0.10677,-0.0315403,-54.5,192.063,-198.938,2.63184,-0.0825195,0.307617,2,1,-4,-5,-17,-12,-6,0,9991
-1.79726,-0.189268,-0.0848203,-163.25,195.563,-201.438,2.2832,0.164551,0.27002,-1,0,2,1,0,-4,-3,-2,10008
-1.87509,-0.273638,-0.133922,-255.125,195.938,-197.625,1.7334,-0.101074,0.0498047,-1,0,2,1,0,-4,-3,-2,10025
-1.96137,-0.357792,-0.178175,-287.313,189.313,-168.688,1.28369,-0.362305,-0.0947266,-1,-3,-2,-3,-10,-14,2,0,10043
-2.03404,-0.431649,-0.224908,-260.313,194.938,-129.938,1.09033,-0.530762,-0.246582,0,-3,0,1,-6,-18,-8,1,10059
-2.0814,-0.498764,-0.278392,-204.313,207.875,-98.9375,0.875488,-0.597656,-0.347168,0,-1,-3,1,-2,2,4,-3,10076
-2.1137,-0.556924,-0.330682,-166.563,194.5,-75.5,0.646484,-0.498535,-0.396484,-1,-3,-1,-1,-3,-1,0,-2,10094
-2.11671,-0.689116,-0.479538,-43.3125,167.375,-42.25,0.34668,-0.316406,-0.569336,-5,-1,-3,-1,-3,-5,-5,4,10167
-2.09482,-0.729838,-0.540501,-48.0625,176.125,-31.625,0.502441,-0.372559,-0.515137,1,-2,1,1,2,13,14,1,10184
-2.06556,-0.769066,-0.609183,-48.4375,181.063,-25.5,0.632813,-0.375977,-0.344238,4,2,-4,-4,-6,6,7,2,10201
-2.01524,-0.804889,-0.683328,-6.75,178.875,-22.8125,0.508789,-0.382324,-0.128906,2,-2,7,-2,0,0,9,-6,10218
-1.9396,-0.833763,-0.773634,23.125,189,-5.125,0.503418,-0.349121,0.292969,0,-3,-2,-5,-7,6,24,-4,10236
-1.9396,-0.833763,-0.773634,23.125,189,-5.125,0.503418,-0.349121,0.292969,-10,9,-2,-1,2,0,-18,10,10253
-1.84673,-0.855695,-0.877411,30.625,190.75,7.375,0.826172,-0.362793,1.07227,5,-4,4,-3,-9,9,20,-10,10270
-1.75038,-0.865455,-0.949378,119.438,137.313,3,0.906738,-0.69043,1.62305,1,-2,0,0,1,7,-1,-2,10287
-1.63893,-0.860337,-0.998351,200.313,73.9375,25.8125,0.285645,-0.221191,1.10205,-2,-2,-3,3,8,-26,-11,-3,10304
-1.58126,-0.85498,-1.03429,87,66.8125,18.125,0.884277,0.369141,1.63672,4,3,0,1,4,-8,1,-4,10321
-1.57061,-0.858525,-1.05976,-24.1875,47.5625,-9.875,1.22266,0.537598,1.65283,-2,0,2,-3,7,-6,8,1,10338
-1.6033,-0.862148,-1.07472,-138.125,14.0625,-2.75,0.624023,-0.0214844,1.08008,-2,-3,-3,-2,2,-8,-12,-2,10355
-1.6033,-0.862148,-1.07472,-138.125,14.0625,-2.75,0.624023,-0.0214844,1.08008,1,-1,-1,-3,-3,-3,0,1,10372
-1.65947,-0.863016,-1.07687,-177.625,-9.375,-5.9375,0.00732422,-0.307617,1.01123,2,1,4,1,3,-5,6,-5,10390
-1.71382,-0.857751,-1.06234,-134.938,-41.25,3.75,-0.107422,-0.543945,0.949707,1,-1,-2,-1,0,4,4,6,10408
-1.71843,-0.842872,-1.0566,-43.0625,-61.25,12.9375,0.046875,-0.574219,0.844238,-1,-1,-1,0,-2,1,0,0,10426
-1.67718,-0.81412,-1.02489,41.25,-51.875,17.9375,0.0297852,0.0585938,0.431641,-5,-1,-1,0,-3,0,-3,-1,10490
-1.67381,-0.810734,-1.00912,26.8125,-49,11.375,0.00341797,0.102051,0.341797,-2,1,0,0,-4,-2,-5,-3,10507
-1.67157,-0.806493,-1.00195,5.375,-32.0625,10.875,-0.0332031,0.0400391,0.339355,-4,-3,1,2,2,1,-3,-3,10524
-1.67235,-0.800094,-1.00359,-17.6875,-10.5625,13.8125,-0.0400391,-0.0546875,0.24707,5,-5,1,0,2,10,32,-2,10541
-1.67689,-0.796788,-1.0151,-46.375,12.0625,9.6875,0.0546875,-0.101074,0.189941,-4,-1,-7,1,-3,-5,-9,-2,10557
-1.66596,-0.799222,-1.04248,-42.5625,36.125,4.1875,0.208984,-0.0976563,0.364258,-4,-5,6,-1,-5,-1,0,-5,10575
-1.66596,-0.799222,-1.04248,-42.5625,36.125,4.1875,0.208984,-0.0976563,0.364258,13,3,11,-6,4,15,42,3,10592
-1.61468,-0.801528,-1.09515,5,70.125,6.25,0.19873,-0.0878906,0.701172,-5,-1,-3,-2,-5,-1,-16,0,10608
-1.54765,-0.796847,-1.16215,42.5625,121.5,14.8125,0.106445,-0.0791016,0.989746,-10,3,1,-1,-5,-8,-15,-2,10626
-1.48079,-0.791745,-1.24131,13.9375,144.063,9.5625,0.26416,0.0166016,1.28564,-10,-3,-5,-1,-6,-8,-35,-1,10643
-1.43827,-0.788892,-1.27818,47.125,74.375,-0.125,0.898926,-0.00292969,1.49756,-1,-2,-6,1,-10,1,-1,3,10660
-1.34776,-0.799312,-1.33032,87.8125,38.3125,-10.5625,0.42041,0.368164,1.2876,2,1,-6,-2,-11,-10,-6,-5,10676
-1.35422,-0.807717,-1.34101,-40.125,15.3125,-28.25,-0.0175781,0.435059,1.52246,-1,-1,-3,-1,10,-1,-7,-10,10694
-1.35422,-0.807717,-1.34101,-40.125,15.3125,-28.25,-0.0175781,0.435059,1.52246,-3,-3,-3,1,5,-8,-10,0,10710
-1.3961,-0.816495,-1.33234,-101.75,-21.8125,-21.0625,0.499512,0.0615234,1.86084,-2,0,-6,0,1,-2,-13,3,10727
-1.43988,-0.831577,-1.32224,-104.688,-26.125,-39.9375,0.691406,-0.188477,1.74268,7,1,2,-1,0,-1,7,0,10744
-1.47363,-0.849115,-1.33194,-58.25,-51.4375,-12,0.213379,-0.47998,1.09033,-6,-1,-6,-1,-4,-4,-13,0,10810
-1.48588,-0.848076,-1.32702,-60.3125,-51.75,-3.625,0.368652,-0.473145,0.833984,-1,-1,2,-2,-3,-2,5,0,10828
-1.50399,-0.848172,-1.32254,-68.25,-36.875,1.8125,0.442383,-0.362793,0.573242,-2,-1,-1,-3,-4,-3,-1,-2,10845
-1.53813,-0.84902,-1.31004,-81.5,-36.0625,1.875,0.35791,-0.254883,0.246094,1,-1,1,1,-1,0,4,3,10862
-1.59666,-0.848302,-1.28772,-119.375,-42.25,3,0.340332,-0.242188,-0.0249023,2,0,2,-2,-2,1,3,-4,10880
-1.6611,-0.841731,-1.26902,-143.25,-34.8125,16.625,0.339844,-0.311035,-0.166504,3,-1,0,0,-6,1,1,-1,10897
-1.6611,-0.841731,-1.26902,-143.25,-34.8125,16.625,0.339844,-0.311035,-0.166504,-5,-2,-2,1,2,1,-2,0,10914
-1.7161,-0.815313,-1.26095,-13.0625,7.375,43.0625,0.525879,-0.541992,-0.356445,-4,0,-2,1,-4,-3,-8,-3,10930
-1.7161,-0.815313,-1.26095,-13.0625,7.375,43.0625,0.525879,-0.541992,-0.356445,0,-3,3,-7,-2,-3,3,0,10948
-1.695,-0.80106,-1.26824,55.9375,20.5,41.625,0.584961,-0.575684,-0.302246,1,-1,-9,-1,1,0,1,-2,10966
-1.65273,-0.790478,-1.27788,104.5,18.625,33.9375,0.460449,-0.329102,-0.250488,-10,-5,-9,-2,-5,-10,-36,1,10983
-1.59836,-0.776498,-1.28212,149.188,9.25,42.875,0.450195,-0.230957,-0.228027,0,-3,-10,3,0,1,6,1,11001
-1.55352,-0.758455,-1.2714,150.563,-22.25,52.1875,0.456543,-0.445313,-0.00976563,-12,3,20,7,-1,1,-10,-1,11018
-1.53255,-0.741907,-1.23499,125.938,-80.25,43.875,0.266602,-0.762207,0.449219,7,-2,-5,-17,-6,-5,-2,1,11035
-1.4989,-0.725189,-1.16051,232.438,-163.125,48.375,0.298828,-1.01025,0.671387,-12,-4,-41,6,6,-20,-38,7,11054
-1.4989,-0.725189,-1.16051,232.438,-163.125,48.375,0.298828,-1.01025,0.671387,1,-5,10,-3,-4,2,20,-12,11071
-1.38635,-0.621361,-0.648531,200.688,-307.438,147.313,1.66699,0.641113,0.888672,-5,1,2,-1,-3,-6,-1,3,11140
-1.45521,-0.578908,-0.497943,46.625,-334.313,173.375,1.71826,0.392578,0.743652,8,-2,6,2,-6,-3,2,-5,11157
-1.53414,-0.532428,-0.349783,-1.8125,-350,160.375,1.73584,0.0893555,0.770996,5,0,11,-1,-2,-7,-2,-1,11174
-1.53414,-0.532428,-0.349783,-1.8125,-350,160.375,1.73584,0.0893555,0.770996,0,-4,-3,-2,-8,-6,7,-7,11192
-1.5945,-0.480428,-0.214165,15.875,-339.375,151,1.61523,-0.250488,0.90332,3,-1,-6,-3,-1,0,1,-3,11209
-1.62336,-0.422368,-0.0964188,51.1875,-317.5,176.688,1.59814,-0.325195,0.76416,-2,0,1,-3,-1,2,0,0,11225
-1.63347,-0.348296,0.0119957,88.125,-299.875,195.5,1.56055,-0.0986328,0.532227,-3,0,-7,-5,-1,1,-4,-3,11242
-1.62642,-0.284401,0.106583,94.75,-272.625,187.813,1.22461,0.175781,0.536133,1,2,0,2,1,5,10,-1,11260
-1.62642,-0.284401,0.106583,94.75,-272.625,187.813,1.22461,0.175781,0.536133,-6,-2,-4,0,-1,-7,-1,0,11277
-1.58504,-0.154463,0.257029,94.25,-201,194.188,0.483398,0.435547,0.748535,-3,3,4,1,-5,-3,-1,1,11294
-1.58504,-0.154463,0.257029,94.25,-201,194.188,0.483398,0.435547,0.748535,1,-2,0,-3,0,0,2,-2,11311
-1.5628,-0.0949335,0.308663,69.5625,-148.938,175.125,0.237793,0.743652,0.749023,-5,-3,-8,4,3,-2,-17,-1,11328
-1.55828,-0.0453561,0.34981,8.375,-116.938,142.75,-0.0473633,1.03223,0.731934,-11,-9,-9,-9,-2,-4,-7,-5,11345
-1.57518,-0.01015,0.375023,-57.75,-72.3125,101.438,0.0146484,1.32178,0.657715,-1,-5,-6,3,4,2,-3,3,11363
-1.59389,0.00743408,0.380299,-97.125,-15.875,47.1875,-0.0366211,1.28125,0.683594,-6,-3,1,-15,-5,1,8,-3,11380
-1.63964,0.000532225,0.368436,-139.813,34.8125,-15.1875,0.179199,1.1333,0.592773,-9,6,-11,13,4,3,-43,12,11395
-1.74251,-0.176406,0.245947,-79.875,191.063,-184.188,2.65918,-0.917969,-0.0488281,-7,-2,2,8,-6,1,7,-4,11466
-1.72653,-0.247815,0.202118,19.375,154.625,-182,2.83594,-0.788574,0.0776367,-5,-6,-6,1,4,3,21,-7,11484
-1.70742,-0.315928,0.160672,21.625,141.313,-176.5,3.13232,-0.54834,-0.170898,1,-1,0,8,0,1,6,-2,11500
-1.70399,-0.379185,0.119882,-30.25,133.375,-164.563,2.85938,-0.313965,-0.144043,-7,-3,1,4,-4,-4,-14,-1,11518
-1.72404,-0.434319,0.085215,-96.5625,112.938,-143.5,2.37158,-0.154785,-0.0991211,2,-2,1,4,-16,-3,-1,2,11536
-1.77328,-0.481835,0.0581414,-175.688,92.5,-121.813,1.87451,-0.20166,-0.18457,3,1,4,3,-7,-2,-2,1,11553
-1.77328,-0.481835,0.0581414,-175.688,92.5,-121.813,1.87451,-0.20166,-0.18457,2,1,1,-1,-2,3,-3,0,11570
-1.84109,-0.528277,0.0357289,-224.063,82.6875,-100.063,1.38574,-0.457031,-0.199707,0,0,1,2,3,7,5,11,11587
-1.89288,-0.564716,0.012145,-182.438,83.875,-75.6875,0.945801,-0.600586,-0.26709,4,-2,0,3,-1,-7,-1,-2,11603
-1.92896,-0.587748,-0.00579562,-129.625,63.625,-46.75,0.580566,-0.679688,-0.410645,2,-1,1,-1,-1,-7,-3,10,11620
-1.92896,-0.587748,-0.00579562,-129.625,63.625,-46.75,0.580566,-0.679688,-0.410645,-2,-3,-1,2,5,0,-6,-4,11637
-1.97212,-0.587721,-0.0179425,-33.9375,14.375,6.0625,0.0668945,-0.643555,-0.580566,0,-1,0,-1,2,-1,0,-3,11654
-1.97212,-0.587721,-0.0179425,-33.9375,14.375,6.0625,0.0668945,-0.643555,-0.580566,0,-1,-1,-1,0,1,0,-2,11671
-1.9702,-0.566143,-0.0171635,29.25,3,25.375,-0.128418,-0.644043,-0.681641,-3,-2,1,-3,0,-1,3,2,11688
-1.95809,-0.541506,-0.00950772,77.0625,-6.8125,18.375,-0.354492,-0.572266,-0.803223,-1,-2,-2,0,-2,0,1,-1,11704
-1.95433,-0.514939,0.00614545,73,-22.375,13.1875,-0.425293,-0.574707,-0.93457,-3,-1,0,0,3,-5,-10,0,11721
-1.97607,-0.428579,0.037849,31.625,-33.375,87.9375,0.321289,-0.35791,-0.726563,-11,-1,-15,5,11,3,-53,26,11793
-1.96741,-0.394125,0.033538,21.375,-30.25,101.813,0.702148,-0.587891,-0.335938,-11,-6,-12,7,4,4,-26,7,11809
-1.95467,-0.359926,0.0341588,36.875,-38.9375,89.8125,2.00391,-0.884277,-0.322266,12,-4,-9,-16,3,8,19,-8,11826
-1.9365,-0.296573,0.0513257,68.0625,-109.688,151.938,2.09326,-1.05078,-0.0927734,-9,5,-5,22,15,-7,-27,0,11843
-1.88337,-0.21211,0.0918132,181.313,-186.688,190.938,2.91016,-1.31689,0.140137,-2,-2,7,8,-3,-1,3,-6,11860
-1.80229,-0.118724,0.139253,254.875,-201.438,222.25,2.78076,-0.983398,0.338379,4,3,5,-3,-9,3,21,-1,11876
-1.75873,-0.0344027,0.173746,132.313,-146.75,215.813,2.52197,-0.703613,0.180176,-1,6,2,-1,-6,8,3,1,11893
-1.75873,-0.0344027,0.173746,132.313,-146.75,215.813,2.52197,-0.703613,0.180176,-7,-3,-3,-1,8,-5,-2,-5,11911
-1.73507,0.0365467,0.199082,67.875,-107.313,187.563,2.06104,-0.256836,0.367676,-1,1,-1,-6,5,-4,0,-4,11928
-1.72018,0.100835,0.221915,37.875,-93.5625,171.563,2.09229,-0.228516,0.155273,-4,-1,-2,-2,-1,-7,-8,-1,11944
-1.71916,0.160315,0.245185,-5.4375,-90.375,158.688,1.85303,-0.0585938,0.104004,-2,0,-2,1,2,-2,-4,2,11961
-1.71757,0.206861,0.272708,-13.0625,-99.125,142.563,1.34668,0.100586,0.184082,1,1,1,-2,-3,7,3,-3,11979
-1.70756,0.249052,0.305201,4.75,-108.125,120.188,0.870117,0.145508,0.191895,-4,-2,0,-2,-2,-2,-3,-2,11995
-1.70756,0.249052,0.305201,4.75,-108.125,120.188,0.870117,0.145508,0.191895,1,2,1,4,-2,-12,-12,-1,12012
-1.6852,0.282894,0.340322,36.0625,-109.063,93,0.632324,0.309082,0.121582,2,4,3,6,2,1,4,2,12029
-1.64648,0.30977,0.377384,78.0625,-108.438,69.9375,0.302734,0.376953,0.116211,-1,1,-1,-2,-1,-1,0,-3,12045
-1.5578,0.358098,0.466441,-24.75,-17.8125,-40.6875,-0.188477,0.779785,0.470703,-1,-4,2,-1,0,-3,5,-7,12118
-1.5578,0.358098,0.466441,-24.75,-17.8125,-40.6875,-0.188477,0.779785,0.470703,-13,-9,-3,8,2,-1,-11,-2,12135
-1.56839,0.337677,0.4675,-60.4375,6.6875,-81.9375,-0.100098,0.760254,0.453613,3,5,-2,-10,-2,0,6,-1,12152
-1.60188,0.294776,0.455531,-91.9375,36.5625,-123.375,0.204102,0.810059,0.447754,6,4,5,8,0,3,-15,8,12169
-1.63942,0.236899,0.431639,-94.625,75.5625,-157.375,0.461426,0.708496,0.358887,-9,-3,5,-6,-9,1,-11,7,12186
-1.68955,0.157641,0.394871,-119.75,121.313,-194,1.41016,0.459961,-0.111816,13,-2,-18,8,13,2,-10,6,12203
-1.76087,0.0666696,0.33899,-186.813,197.625,-233.625,3.10156,-0.541992,-0.285645,2,-1,-2,-23,11,-1,0,-2,12220
-1.81501,-0.0376201,0.277008,-152.625,237.938,-253.625,3.0249,-1.02295,-0.0385742,3,4,-7,4,9,3,0,-2,12236
-1.81501,-0.0376201,0.277008,-152.625,237.938,-253.625,3.0249,-1.02295,-0.0385742,-9,-1,-1,-6,-12,-4,0,-2,12252
-1.83856,-0.132772,0.219353,-81.5,228.75,-222.125,3.3877,-1.08252,-0.270996,-2,-2,6,0,-12,-2,19,-10,12270
-1.8446,-0.220469,0.166638,-44.0625,210.438,-202.313,3.10986,-0.88623,-0.328613,3,1,-2,6,-7,1,-9,4,12287
-1.83246,-0.295559,0.12597,5.25,165.75,-177.938,2.77979,-0.649414,-0.395996,2,2,7,0,2,-14,6,-4,12303
-1.8319,-0.360222,0.100112,-22.6875,115.5,-161,2.49658,-0.175293,-0.407715,-6,0,0,2,-11,-7,-10,4,12320
-1.87365,-0.415626,0.0836993,-137.375,86.25,-140.375,2.01807,-0.0737305,-0.480957,0,1,-1,4,-17,-9,-3,-5,12337
-1.87365,-0.415626,0.0836993,-137.375,86.25,-140.375,2.01807,-0.0737305,-0.480957,0,-2,0,-2,-4,11,0,-1,12354
-1.94098,-0.466814,0.0722015,-202.75,72.75,-111.813,1.37305,-0.402344,-0.436523,-2,-2,0,-1,-6,-6,1,-5,12370
-2.09338,-0.515895,0.0488653,-35.4375,1.375,2.9375,-0.0317383,-0.59082,-0.393555,-2,-2,-1,-1,5,-2,-10,-10,12444
-2.09582,-0.496801,0.0519191,6.3125,-13.125,17.1875,-0.167969,-0.528809,-0.476074,-1,-4,-3,-1,-2,-5,1,-2,12463
-2.09208,-0.478267,0.0594759,38.9375,-16.125,8.5625,-0.238281,-0.472168,-0.605469,-1,0,1,-4,4,6,4,0,12481
-2.09208,-0.478267,0.0594759,38.9375,-16.125,8.5625,-0.238281,-0.472168,-0.605469,2,-2,-1,-1,2,2,14,11,12497
-2.08352,-0.446126,0.0819845,63,-11.6875,4.5625,-0.0112305,-0.711914,-1.11182,3,0,1,-5,-2,-1,4,-5,12515
-2.08352,-0.446126,0.0819845,63,-11.6875,4.5625,-0.0112305,-0.711914,-1.11182,5,-5,-2,-5,-2,-3,3,-6,12532
-2.08291,-0.424165,0.086847,53.6875,-13.375,41.9375,0.160645,-0.560059,-1.14404,-2,0,-7,-9,0,-3,-1,1,12549
-2.08025,-0.391876,0.0886588,41.875,-34.0625,79.1875,0.238281,-0.468262,-0.832031,-7,2,-4,16,1,-5,-22,-1,12565
-2.06884,-0.371224,0.0802299,30,-22.375,92.125,0.80127,-0.653809,-0.462402,-14,0,-3,16,5,0,-30,4,12584
-2.05808,-0.342778,0.0724674,23.0625,-20.3125,81.8125,2.06445,-0.899902,-0.456055,5,0,3,-14,-7,9,29,-7,12601
-2.05808,-0.342778,0.0724674,23.0625,-20.3125,81.8125,2.06445,-0.899902,-0.456055,1,-6,-2,-24,-14,-8,12,-9,12618
-2.01095,-0.212438,0.107463,120.75,-172.188,161,3.03125,-1.34668,0.0541992,4,1,10,6,2,-7,4,-4,12635
-2.01095,-0.212438,0.107463,120.75,-172.188,161,3.03125,-1.34668,0.0541992,0,0,-2,0,-1,2,15,1,12652
-1.9345,-0.114821,0.150269,238.938,-220.938,210.313,2.85107,-1.28027,0.410645,8,9,3,9,5,3,-16,6,12669
-1.86509,-0.0263808,0.186902,206.375,-181.125,206.25,2.70898,-1.13623,0.131348,12,4,3,-4,-8,3,12,-5,12686
-1.82928,0.0503403,0.210769,101.813,-126,192.813,2.10205,-0.161621,0.271973,-4,3,-3,-6,-8,-7,-1,0,12705
-1.79567,0.240945,0.279931,5.875,-120.188,162.375,1.36475,0.0874023,0.0336914,-1,2,1,-3,7,0,0,2,12774
-1.77093,0.298497,0.316177,41.3125,-135.375,155,0.969238,0.131348,0.119141,3,-2,0,-3,-6,-8,0,0,12790
-1.7321,0.349432,0.352558,75.875,-124.688,134.75,0.681152,0.314941,0.17041,-2,-1,1,-4,-3,-6,-5,-3,12808
-1.6876,0.39237,0.386703,88.5625,-106.25,110.75,0.303711,0.449707,0.261719,1,1,-1,1,1,-2,1,-1,12825
-1.63425,0.430637,0.419653,93.0625,-84.9375,84.125,0.0126953,0.634277,0.401367,1,-1,-1,-3,-6,-8,-3,1,12843
-1.59239,0.455428,0.441735,66.1875,-46.1875,39.125,-0.0395508,0.914551,0.457031,2,-2,-2,-1,-4,2,0,-6,12860
-1.56664,0.471347,0.450579,28.3125,-5.6875,4.4375,-0.108398,1.12695,0.571777,-4,0,0,-4,0,3,2,0,12876
-1.56664,0.471347,0.450579,28.3125,-5.6875,4.4375,-0.108398,1.12695,0.571777,-5,-2,-3,0,0,0,1,0,12894
-1.55819,0.479201,0.445661,-4.8125,30.5625,-26.9375,-0.19873,1.21338,0.577637,6,1,1,1,3,1,11,-7,12913
-1.57185,0.461337,0.426334,-44,63.75,-86.75,-0.0292969,1.13525,0.487305,-5,3,2,-2,-3,-5,-6,5,12930
-1.61576,0.415573,0.393376,-89.5625,90.5625,-131.813,0.252441,0.952148,0.302246,8,-7,2,0,2,-1,-2,-1,12947
-1.67789,0.356588,0.353378,-136.313,118.75,-154.875,0.618652,0.710938,0.161621,3,4,2,14,3,1,7,1,12964
-1.75239,0.285711,0.304342,-169.25,161.125,-182,1.58594,0.15918,-0.225098,-14,-8,-3,1,-3,4,-7,9,12982
-1.831,0.187492,0.243648,-184.25,227.375,-237.875,2.90332,-0.834961,-0.178223,7,-5,0,-23,11,-4,19,-9,12998
-1.88946,0.0866335,0.187235,-145.313,236,-231.5,3.25244,-0.963867,-0.18457,4,0,1,-10,-6,-3,2,0,13015
-1.88946,0.0866335,0.187235,-145.313,236,-231.5,3.25244,-0.963867,-0.18457,-6,-1,-6,11,-3,-2,-8,0,13034
-1.93623,-0.223979,0.0494198,-68.75,109.75,-166.938,2.19922,-0.317871,-0.443359,-4,2,-1,-1,-13,-8,-3,-2,13114
-1.99729,-0.284989,0.0452586,-177.813,78.125,-157.125,1.6792,-0.222168,-0.467285,3,-1,-1,3,-7,-11,-7,-1,13131
-2.07237,-0.337826,0.0496667,-208.875,50.4375,-125.438,1.24854,-0.535156,-0.470703,3,-1,-1,3,-7,-11,-7,-1,13148
-2.12757,-0.375082,0.0523453,-155.625,44.5,-90.625,0.755371,-0.793945,-0.46875,-7,-2,-2,4,-5,-4,-4,-11,13165
-2.14779,-0.397252,0.0533244,-67.0625,27.5,-56,0.390625,-0.816406,-0.350586,-1,-1,0,2,11,8,-4,-5,13182
-2.14819,-0.401375,0.056582,-0.9375,7,-28.8125,0.0581055,-0.638672,-0.352539,1,-1,-1,1,1,-3,3,8,13199
-2.14819,-0.401375,0.056582,-0.9375,7,-28.8125,0.0581055,-0.638672,-0.352539,-2,-1,1,-2,0,-3,-1,-7,13217
-2.1405,-0.389896,0.0633562,33.0625,-16.3125,-5.1875,-0.169922,-0.529785,-0.405762,1,1,-3,-3,4,-3,-3,5,13234
-2.13074,-0.369106,0.0731429,47.375,-32.875,9.8125,-0.242676,-0.527344,-0.492676,-4,-3,2,-6,-2,1,1,-6,13250
-2.12366,-0.344381,0.0857765,48.375,-43.625,16.3125,-0.239258,-0.538574,-0.606445,-1,-1,-1,-5,2,2,8,-7,13267
-2.12321,-0.32058,0.0965905,35.9375,-35.75,18.5,-0.169922,-0.668457,-0.838867,4,-2,-1,-15,-9,-4,24,-7,13284
-2.12802,-0.299947,0.0976462,21.4375,-15.25,39.875,0.0732422,-0.638184,-1.00049,-3,-2,-8,-4,-5,-5,-15,4,13302
-2.12802,-0.299947,0.0976462,21.4375,-15.25,39.875,0.0732422,-0.638184,-1.00049,7,-3,2,-3,0,-3,12,-7,13318
-2.13096,-0.278549,0.0940169,21.9375,-18.5625,67.5,0.334473,-0.470215,-0.880371,1,-3,-1,-6,0,1,16,-6,13336
-2.11988,-0.263972,0.0817103,26.375,-8,79.0625,0.648926,-0.633789,-0.453613,3,1,0,-3,-4,1,9,3,13353
-2.10469,-0.262133,0.0712614,31.3125,-15,79.3125,1.28711,-0.856934,-0.433105,6,-3,4,-16,2,14,27,-8,13370
-1.98341,-0.0548434,0.118187,162.625,-182.063,189.813,2.85596,-1.10938,0.0952148,-16,3,-1,26,3,-1,-27,14,13437
-1.92358,0.031807,0.145649,172.5,-165.813,201.063,2.47412,-1.19141,0.100098,-4,-3,-3,-8,-19,-10,17,-10,13455
-1.89359,0.109929,0.162743,82.3125,-120.438,195.25,2.02002,-0.647461,0.120117,1,4,-4,3,5,7,-6,3,13473
-1.86452,0.175627,0.179694,76.3125,-103.063,164.688,2.04834,-0.376953,0.0771484,-3,-2,-2,2,1,-5,-4,-2,13491
-1.83886,0.239935,0.198533,62.5625,-101.875,162.438,2.12207,-0.197266,-0.0649414,2,0,0,1,-4,1,-5,0,13508
-1.83886,0.239935,0.198533,62.5625,-101.875,162.438,2.12207,-0.197266,-0.0649414,-3,-4,0,1,0,-2,5,1,13526
-1.78809,0.36171,0.250436,52.25,-119.563,160.625,1.31543,0.189941,0.074707,1,-2,-1,-3,-8,5,2,-1,13544
-1.75021,0.417088,0.289436,64.4375,-134.125,146.25,0.820801,0.257813,0.137207,2,-1,1,-2,-3,-8,4,-3,13561
-1.75021,0.417088,0.289436,64.4375,-134.125,146.25,0.820801,0.257813,0.137207,1,-1,-2,-2,-4,-6,1,-8,13578
-1.7065,0.464572,0.331036,72.8125,-128.25,123.25,0.559082,0.34375,0.140625,-5,-4,-3,-1,-1,-3,4,-6,13595
-1.6603,0.503936,0.372675,72.875,-115.625,98.875,0.208008,0.496582,0.287598,-4,-3,-2,-2,4,-4,0,-5,13612
-1.61028,0.537311,0.412988,66.8125,-93.8125,68.25,0.0551758,0.6875,0.362793,-1,-5,-3,-3,-3,-3,1,-2,13629
-1.5684,0.561461,0.446717,41.5,-66.1875,36.25,-0.00488281,0.856934,0.489746,-2,-1,-3,0,-2,-3,-7,-2,13645
-1.54342,0.577994,0.470099,2.5625,-35.0625,14.75,0.0136719,0.927246,0.556641,2,-1,0,-2,-3,2,4,-3,13661
-1.53796,0.587107,0.484868,-44.6875,-11.0625,-6.25,-0.0268555,0.84082,0.630859,4,1,-2,-1,0,1,7,-1,13678
-1.53796,0.587107,0.484868,-44.6875,-11.0625,-6.25,-0.0268555,0.84082,0.630859,-4,-8,-10,0,4,-2,-7,5,13694
-1.6503,0.511307,0.417449,-131.813,136.5,-136.813,0.492188,0.685059,0.241211,3,-7,3,-29,-11,3,14,-5,13753
-1.743,0.434867,0.342861,-168.375,216.625,-193.375,1.76514,0.380859,-0.185547,1,-6,-7,1,4,3,-11,3,13770
-1.84888,0.329691,0.257883,-212.25,288,-243.688,2.99219,-1.04834,-0.308594,1,0,-3,9,14,-8,-13,-10,13787
-1.92931,0.225606,0.179088,-168.875,300.063,-215.563,3.78125,-1.36426,-0.32959,8,1,-9,-9,1,3,11,3,13805
-1.95102,0.126706,0.111854,-28.125,279.625,-195.875,3.25391,-1.2583,-0.496094,-10,-2,-7,23,-15,-8,-7,3,13822
-1.95102,0.126706,0.111854,-28.125,279.625,-195.875,3.25391,-1.2583,-0.496094,5,3,3,5,-5,2,6,-2,13839
-1.93312,0.0426527,0.0736597,60.25,189.125,-184.875,2.71484,-1.21777,-0.729492,-1,0,-2,-2,6,1,-1,1,13856
-1.9189,-0.0282067,0.0474727,41.125,140.813,-164.188,2.07227,-0.531738,-0.669922,0,-3,2,-11,7,-3,8,-1,13873
-1.94341,-0.0979118,0.036847,-71.8125,99,-176.25,1.75586,-0.0600586,-0.400879,-1,0,3,-1,-3,-1,2,-8,13890
-2.01699,-0.153239,0.0350938,-211.625,67.625,-143.563,1.61963,-0.263184,-0.405762,7,0,0,-3,-1,8,-1,1,13907
-2.07973,-0.207152,0.0285182,-183.813,80.0625,-114.563,1.14697,-0.824707,-0.428223,7,-2,-1,0,-5,0,3,-2,13925
-2.11294,-0.247357,0.0244094,-101.438,62.8125,-86.9375,0.747559,-0.923828,-0.299316,0,-2,-2,5,-1,-7,-3,-5,13943
-2.1133,-0.276653,0.027049,-5.625,27,-62.75,0.4375,-0.636719,-0.269531,-2,1,0,4,3,-5,-3,-1,13960
-2.1133,-0.276653,0.027049,-5.625,27,-62.75,0.4375,-0.636719,-0.269531,-3,0,0,0,6,-1,-2,-23,13976
-2.10487,-0.285469,0.0371251,37.1875,-9.375,-35.3125,0.161133,-0.448242,-0.352051,0,0,-2,-5,11,8,10,6,13993
-2.09713,-0.276229,0.0542191,43.25,-43.1875,-15.5625,-0.104004,-0.445801,-0.391113,1,-1,0,-2,2,0,7,-2,14010
-2.05835,-0.237549,0.0934659,54.5,-5.8125,-11.75,-0.0927734,-0.70752,-0.824219,0,-3,-2,-1,-1,-6,1,0,14071
-2.05841,-0.232449,0.0930661,42.5625,-0.3125,24.9375,0.30127,-0.439941,-0.939941,-2,-6,-5,-15,-8,-4,0,-5,14088
-2.06209,-0.212722,0.0937834,22.9375,-29.1875,66.5,0.382324,-0.374023,-0.751953,5,0,-1,3,-2,-4,8,-11,14104
-2.05927,-0.209917,0.0853172,9.6875,-7.9375,68.3125,0.983398,-0.657715,-0.458496,-2,1,-8,16,15,5,0,1,14121
-2.05927,-0.209917,0.0853172,9.6875,-7.9375,68.3125,0.983398,-0.657715,-0.458496,-8,-4,-7,-2,-10,-2,-22,3,14139
-2.04945,-0.194669,0.0809369,25.4375,-9.4375,44.25,1.80566,-1.021,-0.376465,19,-3,8,-14,-15,-12,38,-17,14156
-2.03634,-0.137139,0.0915128,42.875,-101.688,133.063,2.41992,-1.21729,-0.359863,0,2,8,-4,-9,-2,0,-2,14173
-1.99692,-0.0627214,0.111952,118.688,-144.75,167.313,2.98096,-1.30957,-0.0371094,27,4,27,18,11,-1,60,-21,14191
-1.99692,-0.0627214,0.111952,118.688,-144.75,167.313,2.98096,-1.30957,-0.0371094,-26,-1,-12,-1,12,5,-74,26,14208
-1.88905,0.0849703,0.162365,131.813,-121.438,163.875,2.37598,-0.790527,0.11084,-1,2,-4,4,-4,-2,-2,0,14225
-1.86442,0.155773,0.178007,65,-103.5,180.313,1.95459,-0.496094,0.152344,0,-1,2,0,-1,-5,18,-8,14243
-1.85206,0.223708,0.196402,25.5,-104.875,172,1.8457,-0.151855,0.0400391,-5,-1,-1,-2,0,1,1,-5,14261
-1.85514,0.286918,0.21647,-23.4375,-103.875,158.25,1.76367,0.112793,-0.059082,1,-1,4,2,-2,1,5,-6,14279
-1.85514,0.286918,0.21647,-23.4375,-103.875,158.25,1.76367,0.112793,-0.059082,4,-1,2,4,-2,-4,5,2,14296
-1.86409,0.345453,0.241016,-47.3125,-117.813,161.375,1.29883,0.0654297,0.00878906,2,-2,2,-2,0,-9,1,-8,14312
-1.85806,0.410143,0.276881,-22.375,-148.063,163,0.860352,0.0239258,0.0986328,2,-1,0,6,-7,-7,8,-6,14329
-1.70534,0.574932,0.425047,106.688,-130.438,101.438,0.244629,0.665527,0.310547,-4,-5,0,0,2,-4,-2,-7,14388
-1.64851,0.59716,0.460224,101.688,-85.625,45.625,0.0249023,0.925293,0.487793,4,5,2,-2,3,-11,-8,3,14406
-1.59914,0.610485,0.480568,78.875,-26.9375,-6.5625,-0.0253906,1.06055,0.571289,0,-8,-1,-5,-5,-3,17,-4,14424
-1.59914,0.610485,0.480568,78.875,-26.9375,-6.5625,-0.0253906,1.06055,0.571289,-2,-4,-4,1,4,-3,-9,0,14441
-1.57212,0.597676,0.486806,-23.4375,21.75,-66.25,-0.00439453,0.82373,0.55127,15,10,1,-1,4,6,1,2,14457
-1.57212,0.597676,0.486806,-23.4375,21.75,-66.25,-0.00439453,0.82373,0.55127,20,-8,-5,2,-3,-2,21,1,14473
-1.58511,0.569822,0.479899,-52.0625,34.25,-98.5625,0.103027,0.681641,0.458008,-4,-3,2,0,1,-6,-20,1,14492
-1.62227,0.52375,0.457359,-76.6875,61.9375,-129.688,0.302246,0.458008,0.297852,2,-11,-6,-7,-4,5,33,-6,14509
-1.67173,0.463039,0.430796,-104.125,77.875,-153.875,1.01318,0.127441,-0.0927734,-5,-15,-5,-13,1,13,10,-2,14526
-1.7313,0.397209,0.3875,-118.813,136.5,-172.75,3.24805,-0.402344,-0.323242,0,14,-1,4,4,-16,-29,8,14544
-1.78915,0.316099,0.321056,-99.375,219.25,-194.563,3.35938,-1.36279,-0.568848,-16,1,-14,-2,-10,-5,-27,-3,14560
-1.78915,0.316099,0.321056,-99.375,219.25,-194.563,3.35938,-1.36279,-0.568848,7,-5,-6,-1,-11,5,-11,3,14578
-1.83905,0.238142,0.259312,-94.6875,219.125,-175.75,3.12891,-1.70752,-0.43457,2,11,14,-6,-3,1,16,1,14594
-1.84428,0.169434,0.219428,8.3125,160.313,-159.75,2.73633,-1.4248,-0.725586,5,12,7,-7,10,1,-10,7,14612
-1.84516,0.113139,0.198408,5.625,101,-139.313,2.53027,-0.828125,-0.73584,-3,8,-1,8,16,8,-9,7,14628
-1.87066,0.0660842,0.186759,-70.125,70.1875,-120,2.06445,-0.257813,-0.546875,8,3,4,-6,-3,-5,5,-3,14645
-2.00146,-0.0115351,0.171492,-201.563,55.8125,-77.25,1.10645,-0.645508,-0.55957,-1,-3,0,5,-8,0,-4,-3,14696
-2.06276,-0.0406515,0.163192,-175.5,53.0625,-53.1875,0.731445,-0.70752,-0.429688,-1,0,-1,2,-3,8,-10,8,14713
-2.10157,-0.0634338,0.153913,-113.125,51.625,-37.625,0.456543,-0.532715,-0.297363,-3,-2,-2,4,-9,-4,-10,-1,14729
-2.12021,-0.0842501,0.144458,-55.5,48.9375,-29.375,0.182617,-0.462402,-0.280273,-2,0,1,2,0,-4,-2,4,14747
-2.12697,-0.0965969,0.135393,-14.25,43.875,-20.6875,-0.0239258,-0.423828,-0.387207,4,0,-1,2,0,-5,6,-2,14763
-2.12619,-0.0999656,0.127763,12.6875,34.4375,-11.6875,-0.196289,-0.473145,-0.507324,-1,-2,-1,-2,2,-6,-4,-4,14781
-2.12619,-0.0999656,0.127763,12.6875,34.4375,-11.6875,-0.196289,-0.473145,-0.507324,1,-1,-5,-2,-5,-1,-2,21,14798
-2.1251,-0.0935325,0.124851,22.4375,17.1875,-8.5625,-0.422852,-0.534668,-0.677246,-1,0,0,2,8,5,13,-4,14815
-2.12321,-0.0821589,0.124983,34.75,2.125,1,-0.383789,-0.645508,-0.888672,2,0,-2,-2,3,-3,1,-1,14832
-2.12276,-0.0709661,0.125178,37,-10.4375,20.8125,-0.0444336,-0.724609,-1.04102,-6,0,-4,4,4,-3,-18,-8,14849
-2.1219,-0.0575696,0.123387,44.0625,-17.3125,43.3125,0.174316,-0.633789,-1.08594,-6,-1,-2,4,-4,-3,-10,-2,14866
-2.11522,-0.0359787,0.119266,55.25,-25.75,67.9375,0.171387,-0.570313,-0.955078,-1,-1,-8,-1,-2,-8,-18,-1,14883
-2.09916,-0.0265917,0.108824,50.625,-9.6875,74.8125,0.631348,-0.823242,-0.569336,-6,1,-5,6,-2,-2,-6,0,14899
-2.09916,-0.0265917,0.108824,50.625,-9.6875,74.8125,0.631348,-0.823242,-0.569336,-1,-4,-13,-12,11,5,-13,5,14917
-2.07801,-0.00446093,0.111869,60.5625,-39,51,2.10889,-1.12012,-0.586426,-16,-3,0,33,-8,-18,-13,-12,14934
-2.04323,0.0613391,0.125323,98.625,-123,148.125,2.90137,-1.32861,-0.349121,1,-1,11,3,-10,-11,13,-10,14951
-1.83182,0.356337,0.244635,53.625,-107.688,145.125,1.75635,-0.506836,0.113281,19,21,8,5,4,2,16,-2,15022
-1.83182,0.356337,0.244635,53.625,-107.688,145.125,1.75635,-0.506836,0.113281,-15,-14,-7,1,-1,-4,0,-3,15039
-1.80346,0.413422,0.268255,55.625,-100.75,143.125,1.84424,-0.453613,-0.0141602,0,-3,-1,-5,-1,-2,3,-1,15056
-1.77255,0.467705,0.293881,57.375,-98.375,137.813,1.66797,-0.126465,-0.00341797,1,0,-1,-5,-3,0,-3,4,15073
-1.73321,0.51522,0.325066,69.0625,-104.625,137.25,1.24561,0.0439453,0.0834961,-1,-1,-2,-2,9,2,-2,-2,15090
-1.69094,0.558012,0.359473,69.9375,-102.75,120.438,0.884766,0.193848,0.0380859,-5,-4,-2,0,-4,-4,0,5,15107
-1.65277,0.594801,0.39599,51.0625,-97.5,100.125,0.514648,0.345703,0.107422,-5,-6,-2,-2,-6,0,-5,-5,15124
-1.61455,0.625135,0.433369,41.25,-87.875,77.3125,0.231934,0.412109,0.150879,0,-1,2,0,-9,-2,-3,1,15140
-1.61455,0.625135,0.433369,41.25,-87.875,77.3125,0.231934,0.412109,0.150879,1,-3,-2,0,0,-6,0,-4,15157
-1.57761,0.651245,0.469957,29.4375,-75.0625,54.5625,0.0698242,0.522461,0.265137,1,-3,-2,0,0,-6,0,-4,15174
-1.53861,0.671821,0.500502,33.875,-50.625,28.375,-0.101563,0.622559,0.422363,4,-1,0,1,2,-6,-1,-8,15190
-1.51178,0.687113,0.51938,13.4375,-17.9375,-2.9375,-0.202148,0.878418,0.519043,0,-2,-1,1,7,1,2,-2,15207
-1.50124,0.693358,0.52201,-8.75,20.0625,-38.75,-0.165527,1.11377,0.587402,-1,-2,5,-2,-6,-3,-3,-4,15223
-1.50884,0.684346,0.508415,-31.875,53.3125,-82.625,-0.0874023,1.18506,0.59082,7,-3,-4,1,1,-4,6,-10,15241
-1.50884,0.684346,0.508415,-31.875,53.3125,-82.625,-0.0874023,1.18506,0.59082,-1,-6,-1,-1,0,-3,10,-2,15258
-1.56423,0.643488,0.475347,-104.25,72.9375,-129.25,0.0380859,1.00195,0.236816,-3,-15,-6,-6,-3,5,17,-5,15276
-1.92576,0.286087,0.247753,-170.313,259.938,-254.625,3.96387,-1.1377,-0.260742,1,-2,-8,0,-2,1,27,13,15348
-1.95653,0.187944,0.192089,-50.5625,246.688,-206.125,3.68262,-1.46289,-0.582031,-3,1,-2,12,-8,4,18,-7,15364
-1.93725,0.109261,0.154017,71.375,183.25,-170.188,2.96094,-1.375,-0.441895,-4,3,-4,4,-2,-2,-7,4,15382
-1.93725,0.109261,0.154017,71.375,183.25,-170.188,2.96094,-1.375,-0.441895,-4,3,-4,4,-2,-2,-7,4,15398
-1.90709,0.0442615,0.129823,91.875,128.938,-151.188,2.40625,-0.497559,-0.522949,-1,0,0,0,-11,-12,1,-5,15415
-1.93282,-0.0115931,0.119512,-73.5625,82.625,-140.25,1.9458,0.299805,-0.276855,0,1,2,-6,-2,1,-5,5,15432
-2.01918,-0.0578292,0.114644,-247.75,65,-116.375,1.6377,-0.206055,-0.479492,-1,-2,1,-3,-10,-4,6,-6,15448
-2.10325,-0.11076,0.101656,-245.313,94.625,-99,1.27686,-0.935547,-0.486328,-5,-2,-4,2,-4,4,-11,-9,15465
-2.15233,-0.150464,0.0861174,-150.375,91.9375,-64.875,0.754883,-1.00879,-0.377441,0,1,0,2,-3,-4,0,0,15483
-2.16227,-0.179937,0.0764258,-38.625,58.0625,-39.75,0.4375,-0.78418,-0.429688,-5,-1,-2,2,10,-4,2,9,15499
-2.16227,-0.179937,0.0764258,-38.625,58.0625,-39.75,0.4375,-0.78418,-0.429688,-2,-1,-1,-1,7,-2,3,-5,15517
-2.15722,-0.18289,0.0749149,18.75,11.375,-7.6875,0.0717773,-0.536621,-0.447266,-3,0,-3,-2,-3,-3,-9,-4,15535
-2.15006,-0.168828,0.0801564,36.625,-20.9375,9.1875,-0.201172,-0.42627,-0.513672,0,-2,-1,-2,-4,0,8,-3,15552
-2.14452,-0.147928,0.0909945,41.375,-39.5,10.6875,-0.319336,-0.43457,-0.634766,-1,-2,-1,-4,-6,-2,0,6,15569
-2.13911,-0.126382,0.103183,43.4375,-43.125,9,-0.34082,-0.538086,-0.737793,2,-2,-3,-7,1,6,6,0,15586
-2.13582,-0.108463,0.109111,41.4375,-29.75,21.625,-0.13916,-0.612305,-0.890137,1,-1,-6,-9,-8,-2,2,-4,15603
-2.11088,-0.0536828,0.0845797,49.625,-18.625,89.8125,0.557129,-0.799316,-0.517578,-11,1,-15,-3,2,-1,-29,10,15657
-2.11088,-0.0536828,0.0845797,49.625,-18.625,89.8125,0.557129,-0.799316,-0.517578,-8,-1,-11,-7,8,3,-20,10,15674
-2.09761,-0.0253866,0.0813396,37.6875,-33.5625,74.4375,1.65771,-1.0625,-0.444336,-4,-3,3,9,3,-6,-7,-13,15691
-2.06616,0.0368446,0.0868021,89.8125,-100.938,148,2.53223,-1.15869,-0.26709,4,3,4,-12,-12,-6,-2,-2,15708
-2.00394,0.127584,0.110498,172.625,-176.875,202.313,3.12109,-1.31201,0.123535,-5,-1,-11,12,18,6,-12,6,15724
-1.92318,0.223956,0.143597,214.813,-192.438,219.813,3.06543,-1.11035,0.141113,-1,0,2,-10,0,6,-9,2,15740
-1.92318,0.223956,0.143597,214.813,-192.438,219.813,3.06543,-1.11035,0.141113,-1,0,2,-10,0,6,-9,2,15758
-1.88482,0.309065,0.16473,94.0625,-134.875,211.125,2.37988,-0.626953,0.0751953,1,2,1,1,-5,-3,9,-4,15775
-1.86663,0.382545,0.18207,34.875,-108,186.813,1.89844,-0.505859,0.223145,3,0,-6,-5,-10,-6,-1,1,15791
-1.84814,0.448426,0.202718,29.5625,-105.25,165.813,1.8999,-0.419434,0.0297852,2,-1,-1,-5,3,0,3,-5,15810
-1.83053,0.508728,0.223744,22.3125,-97.625,152.563,1.7168,-0.122559,0.00927734,3,-1,3,-7,-7,-1,7,-5,15828
-1.80509,0.562835,0.249701,33.6875,-104.125,153.688,1.36768,0.0126953,0.0791016,1,-1,0,1,-2,5,5,1,15845
-1.76639,0.613977,0.283326,55.8125,-110.875,137.938,0.973145,0.124512,0.143066,1,0,2,0,2,1,1,-3,15863
-1.76639,0.613977,0.283326,55.8125,-110.875,137.938,0.973145,0.124512,0.143066,-1,-8,-2,-1,-9,-9,1,-1,15880
-1.71693,0.65613,0.321859,75.625,-108.875,110.688,0.73584,0.293457,0.0776367,-2,-1,0,3,-3,-7,-9,0,15898
-1.66143,0.689361,0.362434,84.9375,-100.5,84.0625,0.410645,0.476563,0.155762,-2,1,1,0,2,2,-1,-2,15916
-1.51464,0.779513,0.482928,-17.75,0.5625,-26.6875,-0.237305,0.950684,0.591309,5,1,1,-2,-4,-3,-2,-3,15979
-1.51464,0.779513,0.482928,-17.75,0.5625,-26.6875,-0.237305,0.950684,0.591309,-3,-4,-3,0,0,-4,2,-2,15996
-1.52752,0.772545,0.471682,-40.1875,45.3125,-67.375,-0.0869141,0.88916,0.500488,3,-3,0,-2,-1,-1,8,-4,16013
-1.57304,0.738706,0.439932,-72.8125,68.375,-105.75,0.105469,0.772949,0.354492,3,4,3,-4,0,0,-3,6,16030
-1.62444,0.690078,0.399812,-75.5,94.0625,-139.313,0.368164,0.662109,0.318359,-12,-1,-5,15,-10,-7,-14,-7,16048
-1.68792,0.624264,0.350067,-95.3125,127.688,-170.313,0.876953,0.434082,0.0644531,13,-1,3,-11,0,-1,12,-5,16065
-1.68792,0.624264,0.350067,-95.3125,127.688,-170.313,0.876953,0.434082,0.0644531,-8,-2,-12,7,8,6,-39,8,16082
-1.76124,0.534608,0.298933,-129.313,160.813,-235.688,3.3208,-0.0551758,-0.332031,-4,1,0,-9,-3,-3,15,-4,16098
-1.83718,0.433127,0.242481,-142.5,205.563,-251,3.20264,-1.10645,-0.0683594,4,-1,-9,-5,0,2,-3,0,16116
-1.89213,0.343175,0.188142,-98.375,212.875,-204.875,3.53271,-1.32568,-0.123535,-12,-1,-7,3,-9,-4,7,2,16134
-1.9183,0.256679,0.147594,-40.75,186.313,-197.75,3.08936,-1.25537,-0.402344,2,-3,3,-4,10,12,6,0,16151
-1.93712,0.185243,0.122038,-38,138.313,-166.875,2.70117,-0.886719,-0.326172,-8,-1,-4,-1,1,5,-11,11,16169
-1.96304,0.124516,0.109613,-68.5,97.1875,-148.875,2.28125,-0.48291,-0.213867,-4,0,-3,1,-11,-5,-7,5,16186
-1.96304,0.124516,0.109613,-68.5,97.1875,-148.875,2.28125,-0.48291,-0.213867,-3,0,3,-2,-1,2,-3,-6,16202
-2.01971,0.0769477,0.102016,-160.438,75.375,-115.688,1.91162,-0.297852,-0.204102,-1,-1,0,6,-4,-1,1,-1,16218
-2.07846,0.0357041,0.0911126,-166.688,81.875,-90.5625,1.4209,-0.661133,-0.316406,1,-1,-2,4,-1,10,-11,-4,16235
-2.1703,-0.0385322,0.0627886,-14.0625,-3.6875,15.3125,-0.0146484,-0.455078,-0.36084,-1,0,-2,-2,0,-4,-10,-3,16305
-2.1703,-0.0385322,0.0627886,-14.0625,-3.6875,15.3125,-0.0146484,-0.455078,-0.36084,-2,-1,0,1,-1,-7,-5,-14,16323
-2.16409,-0.00852965,0.0654393,36.4375,-16.125,14.25,-0.380371,-0.475586,-0.68457,8,-1,1,-6,-2,1,20,10,16339
-2.16409,-0.00852965,0.0654393,36.4375,-16.125,14.25,-0.380371,-0.475586,-0.68457,-1,-1,-3,-4,2,0,-7,-2,16356
-2.15918,0.0105374,0.065727,45.8125,-15.4375,21.3125,-0.409668,-0.578125,-0.931152,-4,-1,-1,-4,-3,0,5,-8,16373
-2.15694,0.0282327,0.0615533,48.6875,-14.125,41,-0.157715,-0.614746,-1.12305,-4,-1,-6,3,6,5,-21,9,16390
-2.15891,0.0463749,0.0556968,45,-23.75,62.5,0.145996,-0.444336,-1.15332,-1,-1,3,4,3,1,11,-3,16407
-2.15604,0.0682245,0.0534142,44.3125,-44.4375,75,0.294922,-0.413574,-0.884277,-1,-1,-3,-4,-1,0,-10,6,16424
-2.15604,0.0682245,0.0534142,44.3125,-44.4375,75,0.294922,-0.413574,-0.884277,3,1,0,14,7,5,23,-4,16442
-2.13913,0.106663,0.0435716,8.25,-53.625,82.0625,1.78369,-1.12988,-0.473633,3,-5,-5,-18,-6,5,0,-1,16459
-2.13913,0.106663,0.0435716,8.25,-53.625,82.0625,1.78369,-1.12988,-0.473633,-10,-5,-6,9,-7,-11,-15,-1,16475
-2.1157,0.166122,0.0536868,63,-114.813,129.313,2.52832,-1.05029,-0.276367,-3,-4,-2,0,11,-4,3,-6,16492
-2.1157,0.166122,0.0536868,63,-114.813,129.313,2.52832,-1.05029,-0.276367,-8,3,4,1,3,-2,7,-2,16510
-1.96523,0.338104,0.132146,251.125,-226.375,179.813,2.55176,-1.27441,0.462402,0,4,5,12,0,2,-7,4,16527
-1.90284,0.407022,0.169272,140.313,-162.875,149.438,2.1416,-0.72998,0.147461,-1,-1,-3,1,-3,-2,0,-5,16544
-1.90284,0.407022,0.169272,140.313,-162.875,149.438,2.1416,-0.72998,0.147461,-1,1,-4,-4,-5,-4,0,-1,16562
-1.80715,0.531621,0.25084,70.25,-61.5,48.25,1.11768,0.131348,0.161621,0,-1,-1,-3,-2,-2,1,-1,16633
-1.76605,0.530735,0.271712,85.9375,-58.5625,29,0.836426,0.156738,0.0439453,1,1,-3,-2,-4,-2,0,0,16650
-1.73366,0.52801,0.292307,59.125,-51.8125,16,0.662109,0.154785,0.0961914,0,-2,-1,-3,2,1,-3,-4,16667
-1.73366,0.52801,0.292307,59.125,-51.8125,16,0.662109,0.154785,0.0961914,0,-2,-1,-3,2,1,-3,-4,16683
-1.67807,0.522772,0.336213,32.5625,-48.5,-3.625,0.229004,0.138184,0.244141,2,0,5,3,-8,-6,7,-7,16700
-1.67807,0.522772,0.336213,32.5625,-48.5,-3.625,0.229004,0.138184,0.244141,-3,0,-2,-3,-2,6,-16,7,16716
-1.65072,0.525945,0.359147,26.4375,-46.125,-1.75,-0.0185547,0.124023,0.325195,-1,-3,-2,-2,-2,-11,0,-5,16734
-1.62121,0.532927,0.377821,32.9375,-31.625,-1.4375,-0.199707,0.187012,0.433594,0,0,0,-1,4,0,-8,2,16751
-1.59746,0.540795,0.386815,27.1875,-4.9375,-10.75,-0.307617,0.409668,0.484863,0,-3,0,-7,-3,1,6,0,16768
-1.58926,0.546547,0.383764,4.5,22.125,-27.4375,-0.321289,0.721191,0.415527,6,2,0,-4,6,0,-2,-1,16785
-1.58926,0.546547,0.383764,4.5,22.125,-27.4375,-0.321289,0.721191,0.415527,0,-4,-2,4,2,-4,-1,-2,16803
-1.60179,0.542086,0.371793,-30.375,37.8125,-55.5,-0.169922,0.965332,0.234863,-5,-5,0,-4,2,11,21,-2,16820
-1.64232,0.520123,0.351017,-85.9375,55.6875,-87.6875,0.0825195,0.965332,0.0634766,17,9,-7,21,12,-13,-48,6,16837
-1.69973,0.472826,0.320228,-122.438,90.875,-126.875,1.38818,0.890137,-0.247559,-36,-9,-13,14,-10,-15,-41,7,16854
-1.79803,0.405123,0.256643,-204.313,196.875,-162,2.875,-0.563477,-0.463867,31,8,6,-26,9,7,0,4,16871
-1.87718,0.322615,0.225399,-194.75,143.188,-206.063,3.16016,-1.28174,-0.0546875,-30,1,-1,22,-15,-18,-19,-6,16888
-1.92803,0.0733991,0.169203,-134.563,87.4375,-150.438,2.21191,0.362305,-0.074707,2,-3,1,-1,-2,0,4,-2,16968
-2.02245,0.0180846,0.158813,-269.625,89.75,-134.063,1.79541,-0.102539,-0.163574,-4,-1,0,-2,11,5,-2,-2,16984
-2.12017,-0.0404158,0.144775,-283.563,105.25,-108.313,1.31787,-0.600098,-0.163086,2,-1,3,0,-7,3,0,-1,17001
-2.12017,-0.0404158,0.144775,-283.563,105.25,-108.313,1.31787,-0.600098,-0.163086,0,0,-1,4,-1,0,-18,10,17017
-2.19518,-0.0878576,0.128816,-223,105.688,-77.1875,0.827148,-0.771484,-0.174316,0,-4,0,2,-2,-3,-2,7,17035
-2.23994,-0.124072,0.113132,-134.813,92.9375,-49.3125,0.580078,-0.587402,-0.331055,1,-1,-2,0,0,-9,-1,-19,17053
-2.26008,-0.147945,0.101829,-58.8125,62.5,-25.875,0.222168,-0.443359,-0.42627,7,1,2,-3,0,-1,7,-3,17069
-2.25291,-0.15082,0.0946696,24.625,32.9375,-6.3125,-0.111328,-0.643555,-0.663086,-1,0,-2,0,-3,0,-5,4,17086
-2.25291,-0.15082,0.0946696,24.625,32.9375,-6.3125,-0.111328,-0.643555,-0.663086,-3,-1,1,-1,-1,-1,2,-2,17103
-2.22962,-0.137952,0.0891922,79.6875,15.6875,8.625,-0.421387,-0.735352,-0.84375,-1,-1,0,-4,-4,-3,1,-5,17119
-2.19092,-0.133242,0.0866177,117.438,5.5625,6.625,-0.51416,-0.632813,-0.98291,2,-1,4,0,0,-1,4,-10,17137
-2.1596,-0.124039,0.0873545,101.813,-12.125,16.4375,-0.199219,-0.569336,-1.22363,4,-2,3,-6,-4,1,12,-3,17154
-2.15883,-0.109698,0.0863548,61.5625,-19.125,46.375,0.246582,-0.521973,-1.36523,3,-2,-4,-13,-4,-3,10,1,17171
-2.16261,-0.0860319,0.0817027,29.0625,-34.625,82.5625,0.366211,-0.441895,-1.00732,-7,-2,-6,6,0,-4,-12,2,17187
-2.16261,-0.0860319,0.0817027,29.0625,-34.625,82.5625,0.366211,-0.441895,-1.00732,-5,-2,-2,2,4,9,13,0,17205
-2.15802,-0.0681477,0.0715944,18.3125,-29.125,96.5625,0.701172,-0.648926,-0.561523,7,-6,3,-10,7,-4,-21,0,17222
-2.08463,0.0738241,0.0861086,123.25,-171.563,180.5,2.93994,-1.21289,-0.0996094,-7,0,-7,13,13,-1,-18,0,17272
-2.0044,0.174389,0.118132,218.75,-212.625,215.063,3.08594,-1.12451,0.324707,-16,-3,1,12,-2,-2,-15,6,17290
-1.91551,0.264083,0.145545,237.75,-168.813,208.938,2.56104,-1.1665,0.0703125,7,9,-2,-2,-3,3,1,0,17307
-1.86809,0.345409,0.164392,119.688,-122.563,205,1.92822,-0.293457,0.264648,-1,-3,-5,-3,-7,-1,-5,-3,17324
-1.86809,0.345409,0.164392,119.688,-122.563,205,1.92822,-0.293457,0.264648,-12,0,-2,6,4,-2,-1,-2,17341
-1.83244,0.4134,0.181635,83.5,-98,174.688,1.90039,-0.0751953,0.0292969,1,-3,-3,-8,1,-2,6,-4,17359
-1.81746,0.475229,0.201134,19.375,-93.1875,158.563,2.11328,0.0273438,-0.0512695,1,-3,-1,-3,-6,-5,-1,-6,17376
-1.80287,0.531617,0.226738,6.1875,-100.625,141.875,1.66992,-0.0776367,0.0913086,0,0,0,1,-5,-5,-3,-2,17393
-1.76954,0.579171,0.261084,41.4375,-113.625,132.313,1.16602,-0.0737305,0.108887,0,0,-1,1,3,10,-5,0,17410
-1.7228,0.622814,0.302281,65.6875,-117.938,113.75,0.758789,0.268066,0.125977,2,-2,-6,-2,-11,1,-1,5,17427
-1.67325,0.659795,0.345036,68.3125,-110.688,96,0.599121,0.428223,0.100098,7,1,3,-1,4,-5,7,-10,17444
-1.67325,0.659795,0.345036,68.3125,-110.688,96,0.599121,0.428223,0.100098,-2,1,11,11,-1,-12,0,-5,17461
-1.62834,0.695247,0.387219,50.875,-100.625,92.4375,0.31543,0.500977,0.166016,0,-1,0,-1,1,-3,3,-1,17479
-1.58625,0.730788,0.426486,32,-75.25,75.125,0.0771484,0.604004,0.303711,-1,-3,-5,-1,-7,-3,0,-7,17496
-1.54781,0.760185,0.460968,18.5,-49.5625,44.4375,-0.0952148,0.750977,0.484863,-3,-1,-2,-4,-3,-2,-4,1,17513
-1.52071,0.777308,0.489454,-7.375,-30.9375,8.375,-0.0825195,0.8125,0.549316,0,-5,1,1,4,2,1,-4,17529
-1.58614,0.721924,0.452623,-91.5625,100.75,-115.375,0.460449,0.795898,0.333984,-10,-13,-17,-6,7,1,-24,6,17604
-1.58614,0.721924,0.452623,-91.5625,100.75,-115.375,0.460449,0.795898,0.333984,-18,0,-5,6,-2,8,-8,8,17621
-1.68113,0.655714,0.3849,-148.438,161.438,-180.063,1.69629,0.664063,0.0400391,-1,0,1,16,6,-5,-20,1,17638
-1.79701,0.559559,0.306048,-202.813,229.625,-240.938,2.89746,-0.85498,-0.319824,-7,-6,-12,-4,3,-3,-18,-2,17655
-1.91347,0.460191,0.229684,-227,263.625,-220,3.45117,-1.19629,-0.106934,5,-1,-1,-12,1,-6,18,-14,17672
-1.97925,0.366042,0.170889,-120.75,242.563,-194.188,3.63525,-1.41895,-0.510742,8,1,-3,1,3,7,17,7,17690
-2.00671,0.282502,0.12762,-39.25,205.313,-170.375,3.18457,-1.11621,-0.678711,-7,-4,2,6,20,18,-16,11,17707
-2.01346,0.210762,0.102316,-1.875,151.313,-156.125,2.5166,-0.726074,-0.728027,2,2,3,0,-5,-3,15,-7,17724
-2.01346,0.210762,0.102316,-1.875,151.313,-156.125,2.5166,-0.726074,-0.728027,1,1,2,-6,-19,-11,12,-15,17741
-2.04079,0.152456,0.095246,-74.75,91.375,-141.25,1.85498,-0.278809,-0.54248,3,-1,1,-5,-3,0,6,-1,17758
-2.09377,0.110845,0.0978199,-152.625,50.5625,-108.375,1.48926,-0.179199,-0.54834,-1,-1,0,3,-2,8,-12,3,17776
-2.14624,0.0668044,0.0974597,-149.75,56.1875,-90.375,1.07959,-0.810059,-0.583496,1,-3,-1,2,-5,-8,-9,-9,17793
-2.18222,0.0336736,0.0954213,-106.438,50.8125,-64.375,0.725586,-0.928223,-0.383301,2,-2,-2,2,-3,-10,0,1,17809
-2.19345,0.00655616,0.0944985,-39.4375,30,-37.875,0.414551,-0.707031,-0.373535,-6,-1,-2,1,7,-1,-5,-16,17827
-2.18815,-0.0038971,0.0974941,16.5625,4.125,-20.75,0.155273,-0.584961,-0.444824,4,0,0,0,2,1,9,17,17844
-2.18815,-0.0038971,0.0974941,16.5625,4.125,-20.75,0.155273,-0.584961,-0.444824,3,1,-1,3,-7,-6,-5,-6,17861
-2.18436,0.0294885,0.108444,20.5,2.375,12.6875,-0.159668,-0.613281,-0.82373,6,1,6,-6,-17,-13,14,-7,17935
-2.18092,0.0352753,0.100726,41.5,0.6875,36.125,0.145996,-0.549805,-0.921387,0,-2,-2,4,9,7,0,10,17952
-2.17274,0.0542665,0.0957735,59.875,-28.125,62.4375,0.135254,-0.518066,-0.970703,-3,-1,0,-4,-2,-7,-12,7,17969
-2.15792,0.0686259,0.0890133,60.125,-31.75,79.8125,0.542969,-0.635742,-0.70752,15,-7,9,-17,-14,13,56,0,17986
-2.15792,0.0686259,0.0890133,60.125,-31.75,79.8125,0.542969,-0.635742,-0.70752,-11,-2,-9,8,-2,6,-27,10,18003
-2.11904,0.160884,0.0828178,61.5,-77.1875,132.5,2.32764,-1.04883,-0.403809,12,-5,-4,-17,-4,1,29,-3,18021
-2.11904,0.160884,0.0828178,61.5,-77.1875,132.5,2.32764,-1.04883,-0.403809,9,2,9,0,-2,-12,29,-17,18038
-2.06357,0.23517,0.110919,142.75,-174.563,145.375,2.82959,-1.17285,-0.251465,8,-9,0,-1,-8,-6,34,-16,18054
-1.97543,0.326358,0.154449,218,-221.938,183.75,2.89502,-1.34717,0.269043,-6,12,3,-4,3,0,-17,7,18071
-1.89946,0.405502,0.188034,183.313,-165.313,179.375,2.40674,-1.19043,-0.206543,-9,-2,-12,-8,-4,3,-4,-4,18088
-1.86256,0.480137,0.213052,74.9375,-127.125,184.125,2.01904,-0.487793,0.370117,-8,-1,-6,-7,-10,-4,-17,-1,18105
-1.86256,0.480137,0.213052,74.9375,-127.125,184.125,2.01904,-0.487793,0.370117,-8,-1,-6,-7,-10,-4,-17,-1,18121
-1.82886,0.549622,0.240516,58.125,-119.938,172.813,2.02783,-0.397949,-0.0317383,3,-1,0,-2,-2,-3,5,-9,18138
-1.80281,0.611841,0.272384,24.0625,-117.438,154.438,1.87158,-0.167969,0.0424805,2,-1,1,-3,1,-5,3,-4,18155
-1.76294,0.670282,0.310472,49.0625,-120.625,145.313,1.55322,-0.0527344,0.0888672,1,0,0,2,-7,0,-4,2,18172
-1.7093,0.71943,0.352717,74.5625,-115.625,136.563,1.09473,0.0683594,0.131836,1,-2,-2,-2,4,4,-1,-1,18189
-1.4726,0.873682,0.533837,43.6875,-47.5625,58.3125,-0.115234,0.633789,0.40918,3,2,-1,-3,-1,-4,0,0,18270
-1.435,0.897302,0.55992,24.6875,-14.0625,24.25,-0.222656,0.734375,0.487305,-1,5,2,0,3,0,0,0,18287
-1.41322,0.914591,0.565291,23.4375,24.4375,-7.6875,-0.234863,0.893066,0.516113,10,2,2,-5,-5,-4,9,0,18304
-1.41599,0.925507,0.544469,9.6875,67.375,-48,-0.337891,1.1084,0.528809,-3,-7,-2,3,4,2,-2,-3,18321
-1.41599,0.925507,0.544469,9.6875,67.375,-48,-0.337891,1.1084,0.528809,-10,-7,-1,-4,-3,4,10,-4,18338
-1.46941,0.897918,0.487615,-29.375,94,-107.063,-0.0742188,1.12012,0.371582,5,-6,5,0,-2,-4,17,-9,18355
-1.55385,0.850676,0.422966,-102.625,112.875,-152.625,0.298828,1.07764,0.209473,-4,3,3,2,-1,-3,12,-3,18373
-1.65734,0.776726,0.349387,-141.063,150.25,-199.75,1.28857,0.725586,-0.0722656,-5,-10,-12,-10,-14,4,-24,12,18390
-1.76911,0.684371,0.268334,-165.313,209.063,-237.5,3.61475,-0.666992,-0.411133,13,13,4,-12,-4,-4,10,-3,18407
-1.86974,0.569166,0.196468,-167.688,243.25,-279.375,3.22217,-1.13623,-0.250977,2,-11,-2,7,-5,-4,4,-10,18423
-1.86974,0.569166,0.196468,-167.688,243.25,-279.375,3.22217,-1.13623,-0.250977,-7,-9,-12,4,8,-4,-7,-7,18440
-1.91188,0.462065,0.156216,-63.5,192,-259.688,3.12598,-1.18408,-0.109375,0,6,-3,16,12,5,3,3,18457
-1.92572,0.358314,0.130987,-10.9375,163.688,-257.25,3.15234,-0.769531,-0.45166,2,-1,0,-11,-20,-5,9,-9,18473
-1.93717,0.252717,0.113507,-17.75,151.625,-266.25,3.3335,-0.330566,-0.532715,1,-1,2,-5,-17,-4,3,0,18490
-1.96907,0.156118,0.109243,-88.8125,114.563,-252.75,2.87451,-0.213379,-0.606445,2,5,5,0,4,-2,-7,-4,18507
-2.04703,0.0692991,0.12077,-227.125,75.6875,-239.688,1.91846,-0.340332,-0.555664,0,1,-4,-5,-2,9,-10,4,18524
-2.19916,-0.101765,0.156658,-75.8125,41.375,-94.125,0.446289,-0.954102,-0.31543,0,-3,0,4,0,-1,9,4,18591
-2.20426,-0.12359,0.163651,-19.8125,13.625,-54.125,0.26123,-0.746094,-0.419922,-1,0,-1,-3,-1,2,2,6,18607
-2.20272,-0.130015,0.16756,4.875,0.8125,-20.0625,0.135742,-0.682617,-0.480469,-1,1,-2,-1,-4,0,-12,5,18624
-2.20272,-0.130015,0.16756,4.875,0.8125,-20.0625,0.135742,-0.682617,-0.480469,-4,-2,-2,0,2,0,4,-13,18641
-2.20938,-0.124804,0.169623,-15.8125,-6.625,-0.375,-0.0571289,-0.665527,-0.539063,-4,0,-1,0,1,-3,-4,11,18657
-2.22416,-0.110111,0.16766,-33.6875,-8.5,22.0625,-0.163574,-0.713867,-0.714844,-3,0,-3,8,5,0,-10,2,18674
-2.23091,-0.0922997,0.158762,-8.4375,-1.8125,46.4375,-0.0800781,-0.768555,-0.842773,-3,1,-6,-11,-5,-3,-7,3,18693
-2.22401,-0.0737488,0.146074,33.1875,-2.9375,65.0625,0.0869141,-0.77832,-0.886719,-6,-5,-5,1,-1,-1,-4,1,18710
-2.20657,-0.045232,0.135843,63.9375,-28.5,88.1875,0.129395,-0.68457,-0.78418,-4,6,0,3,6,2,-19,2,18727
-2.20657,-0.045232,0.135843,63.9375,-28.5,88.1875,0.129395,-0.68457,-0.78418,0,-4,2,-7,-3,-2,18,-5,18745
-2.17496,-0.00437177,0.12476,92.625,-44.375,116.813,0.233887,-0.646484,-0.62793,-8,2,2,27,10,3,-12,1,18761
-2.14247,0.0348834,0.113364,95.6875,-43.25,124.125,0.820801,-0.667969,-0.596191,6,-8,-2,-3,2,0,-5,1,18778
-2.10342,0.0815947,0.102624,113.625,-44.375,130.063,2.3335,-0.581543,-0.377441,-8,1,0,1,-31,-12,-1,13,18796
-2.06217,0.154921,0.0961991,120.625,-86.9375,191.938,2.53857,-0.568848,-0.201172,16,-12,-3,-9,4,-4,19,-28,18813
-1.99881,0.243776,0.113303,171.625,-156.25,207.125,3.05225,-0.824219,-0.0249023,-11,-2,-7,0,2,12,9,0,18829
-1.93052,0.337294,0.134564,178.313,-157.063,225.25,2.98389,-1.04346,0.027832,4,-1,-1,-3,5,6,1,0,18846
-1.83531,0.548605,0.199848,54.6875,-114.438,152.563,2.19238,-0.369141,-0.0942383,-4,-3,0,-2,3,0,9,6,18906
-1.83531,0.548605,0.199848,54.6875,-114.438,152.563,2.19238,-0.369141,-0.0942383,1,-1,-1,0,-4,-5,0,-4,18923
-1.80348,0.612027,0.232405,39.875,-120.125,156.875,1.89746,-0.0273438,0.00927734,1,3,0,-3,-7,-4,0,8,18940
-1.75994,0.671353,0.276653,46.875,-137.938,162.875,1.39502,0.0336914,0.107422,-5,1,1,-3,-4,5,-4,-14,18957
-1.70236,0.729509,0.330515,64.1875,-143.188,156,0.959961,0.135742,0.128418,5,1,2,-2,1,4,4,6,18974
-1.63861,0.781196,0.390894,61.3125,-138,137.063,0.532715,0.352051,0.214844,2,-2,2,-4,1,3,-1,5,18991
-1.58282,0.827478,0.447956,39.1875,-115,126.125,0.382813,0.481934,0.29541,2,1,0,-2,-4,-2,-6,1,19008
-1.53425,0.865333,0.492667,36.125,-76.0625,104.438,0.203613,0.561523,0.568848,-1,-12,-3,0,-3,-1,1,-7,19025
-1.53425,0.865333,0.492667,36.125,-76.0625,104.438,0.203613,0.561523,0.568848,-3,-1,-1,-3,0,7,-3,0,19043
-1.48421,0.897015,0.53005,29.1875,-26.5625,62.375,0.000488281,0.605957,0.680664,-1,2,0,-4,-1,4,-2,5,19059
-1.45705,0.918786,0.54417,15.625,16.5625,22.625,-0.11377,0.688477,0.661621,8,23,4,0,-1,2,8,1,19077
-1.44269,0.933487,0.545129,6.1875,42,-5.9375,-0.0922852,0.810547,0.705566,-5,-10,-4,-1,0,-7,-1,1,19094
-1.44546,0.940297,0.525966,6.8125,68.375,-32.75,-0.0908203,0.817383,0.617676,-8,-7,-4,-5,-3,-7,-4,-2,19111
-1.48608,0.935318,0.482425,-33.375,90.5625,-67.6875,-0.0117188,0.831543,0.34375,3,2,-2,11,4,-1,-14,-6,19128
-1.57053,0.905133,0.410172,-77.25,121.438,-102,0.172852,0.880859,0.00878906,-3,4,-6,2,-3,-3,-25,15,19145
-1.57053,0.905133,0.410172,-77.25,121.438,-102,0.172852,0.880859,0.00878906,-3,0,5,11,-4,2,19,-3,19162
-1.89537,0.669614,0.166778,-158.75,262.688,-255.438,3.12402,-1.104,-0.425293,3,-3,1,-18,-4,-3,9,-6,19222
-1.98279,0.559784,0.105792,-149.5,246.875,-242.563,3.69775,-1.18018,-0.595703,8,0,2,-10,11,6,42,-8,19239
-2.02771,0.458384,0.0716739,-80.9375,199.938,-227.688,3.00049,-1.80029,-0.219238,-8,-1,3,15,-5,-17,-24,3,19256
-2.02577,0.363539,0.0556579,24,157.563,-225.875,2.5791,-1.01758,-0.206055,-6,0,3,10,0,-4,-28,11,19273
-2.01898,0.27522,0.0444061,29.5,138,-214.375,2.09717,-0.100098,-0.102051,3,-1,3,-2,-6,2,15,-8,19290
-2.04471,0.196012,0.0400573,-70.75,111.813,-198.125,1.77148,0.217773,-0.0463867,4,1,7,-2,9,3,25,17,19307
-2.04471,0.196012,0.0400573,-70.75,111.813,-198.125,1.77148,0.217773,-0.0463867,0,0,2,3,-7,-5,-15,-9,19324
-2.09727,0.117601,0.0403691,-149.438,95.0625,-176.25,1.40039,-0.0825195,-0.135254,0,-1,0,-1,-10,-5,-4,-3,19340
-2.15187,0.0579879,0.0432329,-159.688,72.8125,-132.75,1.125,-0.612793,-0.230469,1,-2,1,1,-1,6,-4,1,19357
-2.18906,0.0158186,0.0447009,-112.125,58.0625,-92.5,0.669434,-0.82959,-0.217285,3,-3,1,1,-1,-2,0,2,19374
-2.19083,-0.0164613,0.0485121,-18.625,33.3125,-65.4375,0.291992,-0.749023,-0.296875,-3,0,-1,-2,7,-5,-5,4,19392
-2.16855,-0.0378223,0.0534831,64.75,19.3125,-52.9375,0.12793,-0.613281,-0.431641,-2,0,-5,-2,2,-4,0,-7,19410
-2.14122,-0.0496875,0.0628936,91.125,-0.5625,-46.75,-0.0249023,-0.648438,-0.614746,-4,-3,-3,1,0,-5,-7,-10,19427
-2.14122,-0.0496875,0.0628936,91.125,-0.5625,-46.75,-0.0249023,-0.648438,-0.614746,3,-1,-1,-13,-6,5,23,-11,19444
-2.12305,-0.0495648,0.0722077,71.375,-15.3125,-24.4375,-0.132324,-0.75,-0.758789,1,-3,1,-3,-2,-3,6,-6,19461
-2.11669,-0.0417758,0.0747324,40.75,-6.875,-0.6875,-0.227051,-0.823242,-0.867676,-6,-2,-5,-6,-5,1,-4,9,19478
-2.12421,0.0357019,0.0422756,31.0625,-28.1875,108.688,0.941406,-0.887207,-0.352051,-6,-1,-6,-3,6,-1,-18,12,19549
-2.0844,0.0698701,0.033887,115.25,-29.3125,96.4375,2.0752,-0.88623,-0.179688,-15,-6,-14,-4,-9,-4,-53,14,19568
-2.0844,0.0698701,0.033887,115.25,-29.3125,96.4375,2.0752,-0.88623,-0.179688,0,-11,1,0,-15,-1,25,-6,19585
-2.02587,0.147583,0.0398647,165.75,-119,189.125,2.48779,-0.857422,-0.16748,-8,-4,0,10,2,1,6,-11,19601
-1.95034,0.249778,0.0650103,202.25,-183.625,239.313,3.08496,-0.9375,0.154785,-2,0,-1,6,3,6,3,8,19619
-1.88419,0.349602,0.0964098,163.25,-178.188,240.125,3.1333,-0.817383,0.179199,-4,3,-4,1,0,-5,-23,-4,19636
-1.8526,0.441961,0.121137,62.8125,-140.313,233.75,2.51074,-0.280762,0.391113,1,-4,-4,2,-3,2,-10,0,19653
-1.81259,0.52592,0.154399,70.5,-143.5,210.625,1.95068,-0.456055,0.283691,-3,1,2,-6,-7,0,3,0,19671
-1.77364,0.601366,0.189827,57.4375,-131.688,191.875,2.01367,-0.258789,0.0483398,-3,-2,-2,-1,-5,-2,4,-3,19688
-1.77364,0.601366,0.189827,57.4375,-131.688,191.875,2.01367,-0.258789,0.0483398,-1,-1,0,2,-3,-1,7,-4,19706
-1.74231,0.672534,0.227928,24.4375,-124.125,184.188,1.75342,0.132813,0.116211,-4,-3,0,-3,-1,-3,-3,4,19723
-1.70355,0.733157,0.277139,17.0625,-133,170.313,1.31299,0.120117,0.196777,-4,0,-1,1,3,1,0,5,19740
-1.64644,0.785693,0.338119,40.8125,-139.938,145.75,0.893066,0.108887,0.222656,-6,-5,-3,1,-2,8,-3,-2,19756
-1.57968,0.826014,0.396408,69.25,-119.063,113.75,0.619629,0.327637,0.111328,4,9,1,0,-1,-7,-5,-1,19773
-1.49656,0.8586,0.455917,94.4375,-92.6875,81.1875,0.227051,0.500977,0.333496,6,4,4,-1,-2,-3,3,-2,19791
-1.43175,0.882581,0.502711,63.3125,-58.1875,47.4375,-0.0244141,0.550781,0.385254,7,8,2,-4,-2,-3,4,-5,19808
-1.32863,0.912838,0.572335,14.3125,13.5,-26.6875,-0.177246,0.814453,0.618652,5,-1,3,-10,-2,3,10,-2,19880
-1.32674,0.907861,0.567327,-13.8125,31.8125,-70.6875,-0.0644531,0.973145,0.506836,-9,-15,0,2,1,-2,10,-3,19897
-1.37441,0.875787,0.522186,-41.25,63.4375,-120.625,0.180664,1.14063,0.29834,7,6,-1,-12,-4,-1,-2,-2,19914
-1.43976,0.830836,0.466083,-71.1875,87.75,-152.875,0.361816,1.02295,0.300293,0,-1,3,-4,1,4,16,2,19930
-1.53664,0.760869,0.395428,-133.25,124.563,-211.5,1.77588,0.586914,0.00146484,3,-4,-4,-6,-1,-1,13,2,19948
-1.53664,0.760869,0.395428,-133.25,124.563,-211.5,1.77588,0.586914,0.00146484,2,-2,-7,-16,10,-1,-3,3,19965
-1.67165,0.66741,0.302375,-212.125,210.563,-261.063,3.22412,-0.475586,-0.151367,2,-2,-7,-16,10,-1,-3,3,19982
-1.7854,0.567956,0.231622,-208.625,208.438,-255.563,3.13281,-1.23047,-0.0385742,-8,3,-11,1,-9,1,-5,1,19999
-1.85185,0.477257,0.175803,-110.313,198.375,-218,3.07666,-1.20313,-0.145996,-6,1,3,7,-1,-1,-7,3,20017
-1.89051,0.394175,0.129933,-55.125,184.188,-192.25,2.84424,-0.853027,-0.233398,-3,1,-1,7,3,0,-7,1,20035
-1.92058,0.320545,0.0936503,-50,161.5,-167.5,2.55664,-0.5,-0.21875,-3,2,1,1,-2,-4,-14,1,20052
-1.96134,0.252706,0.068476,-96.25,134.813,-156.25,2.18506,-0.335449,-0.212891,-2,2,2,3,7,3,-3,-3,20069
-1.96134,0.252706,0.068476,-96.25,134.813,-156.25,2.18506,-0.335449,-0.212891,-2,-1,2,-2,0,2,8,-3,20087
-2.02295,0.192737,0.0518361,-165.938,112.688,-137.688,1.81592,-0.268066,-0.203125,9,1,0,-2,-5,-5,2,16,20104
-2.08599,0.133838,0.0407397,-174.875,94.75,-113.375,1.37354,-0.477051,-0.315918,2,-1,0,2,-2,10,7,2,20121
-2.13959,0.0887486,0.0324652,-149.875,78.5,-84.625,0.882813,-0.52832,-0.405762,-10,-3,-1,4,8,-2,-10,-4,20138
-2.17819,0.0652289,0.0386566,70.125,-37.5,24.4375,-0.138672,-0.710449,-0.794922,-1,-1,0,1,-6,-1,0,-5,20222
-2.14281,0.0797917,0.0475782,105.188,-41.9375,15.8125,-0.397461,-0.731445,-0.854004,4,-2,2,-5,-7,-1,14,1,20240
-2.10836,0.0885492,0.0593132,103.938,-39.1875,-1.5,-0.444336,-0.742676,-1.00635,-9,-2,-4,-9,0,1,-15,4,20257
-2.09438,0.0882234,0.0705648,93.1875,-34.4375,-14.25,-0.00732422,-0.494629,-1.20313,-1,-2,2,4,-5,-10,4,-9,20275
-2.08571,0.091136,0.0834335,67.875,-54.5625,12.6875,0.335449,-0.492676,-1.04639,5,0,-1,-11,-3,1,13,-1,20292
-2.08004,0.102771,0.0782082,30.875,-31.3125,83.0625,0.697266,-0.620117,-0.561035,-4,0,-2,11,-2,-4,1,-1,20309
-2.08004,0.102771,0.0782082,30.875,-31.3125,83.0625,0.697266,-0.620117,-0.561035,-12,-5,-5,31,5,0,-49,12,20326
-2.06332,0.140641,0.0649933,52.5625,-18.875,113.313,1.39307,-0.666504,-0.200684,-16,-4,2,5,-10,-5,-27,-1,20344
-2.03331,0.196118,0.0680377,84.5,-80.6875,137.125,2.29053,-0.844238,-0.175293,2,-4,-5,-10,4,-1,-26,10,20361
-1.9886,0.290271,0.0899906,113,-170.688,218.188,2.74512,-0.911621,0.226074,-1,0,0,8,2,3,42,-10,20379
-1.90177,0.399663,0.127502,212.438,-209,255,3.12549,-0.787598,0.336426,-10,2,-2,17,3,4,-28,5,20396
-1.81968,0.499357,0.162484,191.813,-168.313,248.188,2.83691,-0.846191,0.155762,-4,5,3,13,1,-1,2,4,20414
-1.78518,0.589392,0.190665,56.5625,-126.625,235.438,2.30957,-0.376465,0.205566,0,-3,1,-9,-1,-2,3,-7,20431
-1.76028,0.662942,0.220521,21,-110.313,192.688,2.1958,-0.291504,0.144531,-7,-1,-2,0,1,-6,-3,-1,20448
-1.73858,0.730355,0.255648,-2.3125,-110.563,176.188,2.17041,-0.311523,0.0493164,-2,0,2,-2,-5,-5,-2,-3,20467
-1.73858,0.730355,0.255648,-2.3125,-110.563,176.188,2.17041,-0.311523,0.0493164,0,1,1,-5,-6,-5,3,-2,20484
-1.46458,0.926463,0.510079,105.063,-118.813,103.875,0.517578,0.416992,0.126953,-5,1,-2,-2,1,-7,-2,-3,20554
-1.3751,0.949182,0.576572,100.125,-98.75,74.6875,0.152832,0.563477,0.197266,2,1,-1,-2,-4,-1,5,-4,20570
-1.28537,0.973938,0.645102,78.125,-77.5,49.1875,-0.0883789,0.76709,0.269531,-5,-5,-4,1,1,-2,3,-2,20587
-1.28537,0.973938,0.645102,78.125,-77.5,49.1875,-0.0883789,0.76709,0.269531,-2,-3,-4,4,0,-4,-9,-1,20605
-1.21254,0.990221,0.703177,44,-50.125,16.5,-0.143066,0.904297,0.42627,5,0,2,-9,-3,1,18,-6,20622
-1.171,0.999861,0.744169,-11.375,-21.25,-11.6875,-0.248047,0.913574,0.547852,0,-1,-3,1,2,2,-7,1,20639
-1.16594,0.996339,0.762588,-59.4375,-0.5625,-47.0625,-0.19873,0.722168,0.568848,-4,-11,-3,1,-3,-6,-4,-3,20656
-1.22555,0.972646,0.732189,-104.875,26.875,-88.1875,0.121094,0.583008,0.46582,-1,-3,5,-13,-5,1,12,6,20673
-1.22555,0.972646,0.732189,-104.875,26.875,-88.1875,0.121094,0.583008,0.46582,-5,1,4,-7,5,0,-11,6,20689
-1.31522,0.943426,0.674693,-127.063,72.1875,-112.375,0.40332,0.584961,0.396484,-2,-3,2,-25,-8,0,26,-2,20706
-1.42454,0.904916,0.596359,-138.063,116.125,-133.375,0.71875,0.454102,0.323242,-10,-3,-17,12,13,-6,-38,3,20723
-1.55838,0.850174,0.501305,-173.375,161.375,-170.5,2.22656,0.210938,-0.0673828,-1,-3,5,-2,-13,-3,0,1,20740
-1.71177,0.768096,0.376923,-181.813,260.75,-219,3.04736,-0.443848,-0.225098,14,10,8,-17,-4,-1,25,-13,20757
-1.84641,0.67206,0.275725,-194.563,270.5,-224.188,3.20264,-0.908691,-0.0615234,8,1,0,-2,-12,1,19,-11,20774
-1.93071,0.577874,0.191361,-99.8125,270.625,-194.813,3.70605,-1.1084,-0.408203,7,1,-9,-11,9,11,6,1,20791
-1.93071,0.577874,0.191361,-99.8125,270.625,-194.813,3.70605,-1.1084,-0.408203,-7,-4,-3,12,15,-3,-6,2,20808
-2.08503,0.346301,0.0555723,-125.125,141.25,-130.563,1.90967,-0.46582,-0.577148,-8,0,-3,-1,-4,1,-12,1,20867
-2.16282,0.299077,0.0431079,-211.625,100,-97.5625,1.4248,-0.371582,-0.536133,-2,-1,0,3,0,2,-2,-3,20884
-2.24128,0.253656,0.0326093,-213.438,86.8125,-71.25,1.06641,-0.564453,-0.687012,-1,-3,-3,0,2,0,-3,-1,20901
-2.299,0.221026,0.0240778,-159.688,69,-45.25,0.617188,-0.766602,-0.680664,2,-2,0,2,2,-1,15,2,20918
-2.32642,0.196529,0.0171179,-72.6875,40.0625,-15.0625,0.286133,-0.639648,-0.634277,-2,-3,-2,4,0,-4,-7,5,20936
-2.33078,0.189834,0.0143294,-3,7.6875,0.625,0.0581055,-0.483887,-0.618652,-2,-2,1,0,0,-2,0,-3,20951
-2.32127,0.193783,0.0164488,39.125,-14.1875,2.5,-0.133301,-0.378418,-0.617188,0,0,-1,-2,0,-2,1,-1,20969
-2.32127,0.193783,0.0164488,39.125,-14.1875,2.5,-0.133301,-0.378418,-0.617188,-1,-1,-1,-4,-2,-5,-3,-6,20986
-2.30759,0.205239,0.0243869,53.875,-33.0625,-2.625,-0.327637,-0.340332,-0.688477,-1,-2,-1,-5,-1,-3,-1,-6,21003
-2.29098,0.219587,0.0381001,62.25,-50.125,-9.1875,-0.403809,-0.417969,-0.807617,-4,-1,-3,-1,1,-3,-19,-6,21020
-2.27088,0.231075,0.0512723,73.375,-54.5625,-1.1875,-0.226074,-0.584961,-0.952148,1,-3,-2,-8,-2,1,10,-6,21038
-2.25189,0.237141,0.0566134,79.6875,-46.875,22.5625,0.163574,-0.599609,-1.03027,-7,2,-2,5,2,-6,-10,6,21056
-2.23502,0.247651,0.053213,86.5,-42.25,53.3125,0.310059,-0.446289,-1.01758,8,0,10,-8,-6,3,24,-9,21074
-2.23502,0.247651,0.053213,86.5,-42.25,53.3125,0.310059,-0.446289,-1.01758,5,2,1,8,1,-4,2,-3,21092
-2.20956,0.255267,0.0560272,85,-61.875,62.625,0.765625,-0.505859,-0.638672,-7,-2,3,14,5,1,-5,5,21108
-2.18025,0.28063,0.0509123,87.9375,-30.9375,67,1.57227,-1.03271,-0.403809,3,-1,-4,-8,3,5,4,-4,21126
-1.93644,0.494263,0.10069,288.063,-185.25,226.125,3.09082,-1.24707,0.249512,-5,-4,-2,-10,-10,1,11,-6,21190
-1.86787,0.662964,0.134455,26.25,-101.313,211.813,2.09277,-0.410156,0.294434,-8,-3,-5,-2,-7,-1,-3,1,21207
-1.86787,0.662964,0.134455,26.25,-101.313,211.813,2.09277,-0.410156,0.294434,-9,-5,-3,-4,-3,-1,-2,-6,21225
-1.83038,0.741694,0.160661,59.25,-116.875,200.938,1.99609,-0.636719,0.0385742,-2,-4,-4,-1,-6,-9,-3,-2,21243
-1.7919,0.817402,0.192036,46.625,-114.188,195.563,1.84668,-0.130371,0.00585938,-6,-5,-2,3,2,1,-11,2,21260
-1.74282,0.883523,0.235944,45,-119.625,183.938,1.40723,0.0498047,0.10791,1,-8,-6,2,-2,6,-4,5,21277
-1.68032,0.942902,0.294005,45.875,-124.188,162.125,1.0791,0.193848,0.113281,0,1,0,1,-4,9,4,-1,21294
-1.60491,0.987779,0.362945,52.25,-119.25,121.25,0.691406,0.367188,0.16748,-5,-7,-1,0,0,-6,1,0,21311
-1.52351,1.01995,0.435886,55.875,-109.438,88.875,0.36084,0.480957,0.14209,3,-3,1,1,-6,-11,-10,-1,21327
-1.52351,1.01995,0.435886,55.875,-109.438,88.875,0.36084,0.480957,0.14209,3,-3,-3,-10,-6,-3,9,-6,21345
-1.43145,1.04857,0.517293,54,-99.5625,63.8125,0.176758,0.595215,0.179688,4,-1,-1,1,7,2,2,0,21361
-1.32965,1.07234,0.602429,66.625,-88.25,49.5,0.015625,0.66748,0.253906,-9,-1,-5,-5,12,-6,-11,2,21378
-1.2438,1.09136,0.677189,40.1875,-61.5625,37.4375,-0.145508,0.635742,0.349121,-3,-5,-6,-2,-10,-12,-9,-1,21394
-1.18302,1.10699,0.737012,-2.25,-28.8125,13.5625,-0.40625,0.710938,0.541504,2,0,-1,-8,-15,-5,-9,-1,21412
-1.18302,1.10699,0.737012,-2.25,-28.8125,13.5625,-0.40625,0.710938,0.541504,-11,0,-9,2,2,13,-22,7,21429
-1.14171,1.11598,0.773643,1,-8.5625,-19.25,-0.488281,0.773438,0.479004,4,-2,-2,0,11,1,3,-7,21446
-1.50878,0.949632,0.452942,-110.875,178.875,-278.375,2.64893,0.289551,-0.160156,0,5,-2,7,-5,-8,-19,0,21517
-1.64802,0.840543,0.34422,-155.125,197.813,-311.5,2.88525,-0.933105,0.176758,-4,-1,4,-13,-5,-9,-6,0,21534
-1.64802,0.840543,0.34422,-155.125,197.813,-311.5,2.88525,-0.933105,0.176758,-25,-10,-4,-29,-33,-10,-1,-12,21551
-1.79795,0.631382,0.215799,-69.4375,176.25,-264.188,3.85059,-1.17822,-0.219727,2,-4,-5,1,3,7,38,20,21567
-1.79795,0.631382,0.215799,-69.4375,176.25,-264.188,3.85059,-1.17822,-0.219727,-9,1,1,-1,0,26,11,-8,21585
-1.84448,0.53778,0.17798,-73.625,154.313,-237.5,3.53564,-0.845215,-0.523438,-10,0,0,7,-1,1,-2,3,21602
-1.89636,0.45468,0.162182,-127.188,108.375,-215.875,2.77539,-0.481934,-0.471191,0,2,0,7,3,11,-5,5,21619
-1.97253,0.384962,0.163582,-219.75,67.6875,-188.125,1.91797,-0.393066,-0.351563,6,0,-2,1,-1,1,0,7,21635
-2.04494,0.332651,0.161784,-205.938,67.75,-133.75,1.45508,-0.791992,-0.525391,-2,-1,1,2,-8,5,-8,-12,21653
-2.04494,0.332651,0.161784,-205.938,67.75,-133.75,1.45508,-0.791992,-0.525391,6,-2,2,4,8,0,-2,-9,21670
-2.09852,0.285128,0.153231,-148.813,77,-90.125,0.937012,-0.935059,-0.352051,2,-1,-1,6,0,-10,12,-2,21686
-2.12129,0.234312,0.147963,-60.25,55.625,-65.25,0.703125,-0.702148,-0.446289,-2,0,1,1,-3,-8,-3,1,21703
-2.1299,0.211453,0.146704,-17.75,17.0625,-23.75,0.344727,-0.672852,-0.529785,-1,-1,-2,-1,-5,-8,0,3,21720
-2.13438,0.212101,0.148233,-5.375,-13.1875,9.875,0.0146484,-0.646973,-0.54834,3,0,-2,-3,-11,-3,1,7,21738
-2.14522,0.223569,0.147646,-20.5625,-16.625,24.8125,-0.233398,-0.633301,-0.589355,0,-3,0,-3,-4,-4,-5,4,21754
-2.16173,0.238415,0.138004,-29.9375,4.5,37.125,-0.430176,-0.668945,-0.644531,-2,-2,-1,-4,-3,-4,1,-11,21771
-2.17699,0.28734,0.0868961,54.9375,-20.625,86.6875,0.299805,-0.551758,-0.921387,-3,1,-8,-5,-4,-11,-20,5,21847
-2.15965,0.321144,0.0746458,67.375,-33.5,104.688,0.304688,-0.381348,-0.74707,-1,-3,5,5,-7,-1,11,-8,21864
-2.139,0.350328,0.0601556,72.5,-20.3125,103.125,0.626953,-0.52002,-0.321777,4,-4,13,-9,7,1,14,1,21882
-2.11894,0.396156,0.050136,67.875,-46.9375,125.438,1.3501,-1.00342,-0.571289,-2,1,-5,9,-8,1,-34,2,21897
-2.09706,0.463295,0.0510561,61.8125,-100.625,163.875,2.37305,-1.19092,-0.330566,1,6,5,11,6,-2,-22,7,21915
-2.09706,0.463295,0.0510561,61.8125,-100.625,163.875,2.37305,-1.19092,-0.330566,0,-5,-22,-23,-4,-10,20,-10,21933
-1.98042,0.638794,0.102333,131,-182.563,206.063,3.01807,-1.14551,-0.144531,3,0,-4,7,-13,-12,5,-4,21949
-1.98042,0.638794,0.102333,131,-182.563,206.063,3.01807,-1.14551,-0.144531,-4,3,-2,14,4,15,-19,-1,21967
-1.92028,0.725818,0.139083,105.563,-168.313,201.5,2.5459,-1.10254,-0.0322266,0,-5,-8,-14,2,-20,8,-12,21984
-1.85706,0.800294,0.179476,101.25,-146.25,176.438,2.04395,-0.592773,0.100586,3,-3,-4,4,-23,-20,1,-5,22000
-1.79707,0.862942,0.225165,75.25,-130.875,151.375,2.08252,-0.30127,0.0327148,1,-4,-4,-3,11,4,20,-12,22016
-1.73145,0.921624,0.28099,62.8125,-131.063,146,1.92383,-0.0112305,0.171387,-5,-1,0,4,-8,-11,-13,-2,22032
-1.73145,0.921624,0.28099,62.8125,-131.063,146,1.92383,-0.0112305,0.171387,2,0,3,2,8,5,-9,6,22050
-1.64389,0.971265,0.350219,88.375,-130.063,139.188,1.37891,0.0927734,0.205078,1,0,-2,-1,-3,1,-1,0,22068
-1.43887,1.03651,0.51339,93.25,-113.625,83.5625,0.666504,0.339844,0.308594,-4,-7,1,-6,-7,-1,1,2,22085
-1.43887,1.03651,0.51339,93.25,-113.625,83.5625,0.666504,0.339844,0.308594,3,0,0,-4,-4,10,-4,7,22102
-1.05958,1.08244,0.815891,22.9375,-34.5625,-16.0625,-0.292969,0.861328,0.444336,-2,15,2,3,9,-1,-1,11,22173
-1.05211,1.07834,0.831085,-44.1875,2.4375,-57.25,-0.22168,0.837891,0.494141,10,14,-1,2,19,1,-10,-1,22189
-1.12131,1.05448,0.789166,-100.313,26.375,-99.6875,0.0229492,0.834961,0.475098,-7,-7,-4,-3,-10,-16,3,-10,22207
-1.12131,1.05448,0.789166,-100.313,26.375,-99.6875,0.0229492,0.834961,0.475098,-11,-2,0,6,-10,-10,-23,0,22224
-1.21796,1.01983,0.720791,-113.438,60.1875,-138.438,0.286133,0.693848,0.411621,8,-11,5,-22,-16,-1,42,-14,22241
-1.32548,0.975207,0.638288,-114.625,90.125,-163,0.44043,0.557617,0.306152,-16,4,-4,-3,-15,-3,-24,1,22258
-1.4507,0.909344,0.529932,-106.813,146.875,-209.875,1.42334,0.42334,-0.0356445,0,-21,-3,-11,-8,-6,11,-7,22276
-1.58098,0.820193,0.412222,-115.875,204.813,-267.313,3.08691,-0.205078,-0.181641,-16,-11,-8,22,-3,-6,-64,8,22293
-1.71318,0.725501,0.315613,-185.5,218.313,-255.313,3.33887,-0.676758,0.0180664,9,-13,15,-35,-30,10,69,-17,22309
-1.7977,0.630664,0.244665,-114.563,205.688,-238.313,3.94824,-1.09131,-0.334961,5,-4,-11,-8,6,-1,-2,-3,22324
-1.7977,0.630664,0.244665,-114.563,205.688,-238.313,3.94824,-1.09131,-0.334961,-5,1,-7,11,7,-3,-8,0,22341
-1.86777,0.545929,0.189826,-113.563,189.5,-200.813,3.44434,-1.01221,-0.519043,3,4,-3,-3,17,31,-2,11,22358
-1.91262,0.472849,0.158993,-85.875,138.813,-174.563,2.63086,-0.791992,-0.482422,5,9,3,1,-2,-8,9,0,22375
-1.95942,0.412929,0.145044,-116.563,95,-147.5,2.01123,-0.282227,-0.454102,5,9,3,1,-2,-8,9,0,22393
-2.02099,0.364455,0.133364,-163.938,85,-114.563,1.68311,-0.379395,-0.601074,2,1,0,3,2,1,-2,-6,22410
-2.02099,0.364455,0.133364,-163.938,85,-114.563,1.68311,-0.379395,-0.601074,0,-1,4,3,11,4,6,-6,22427
-2.18954,0.258714,0.108641,-42.0625,-7.4375,-0.125,0.0869141,-0.438477,-0.433594,-4,0,-1,3,17,-2,-6,-23,22503
-2.19564,0.266365,0.113159,-7.625,-26.75,10,-0.12207,-0.320313,-0.467773,-3,-2,-2,-5,2,-5,-6,8,22520
-2.19317,0.275978,0.119512,21.25,-31.375,3.8125,-0.298828,-0.429688,-0.661133,-2,-1,-4,-2,-2,-3,-19,-8,22537
-2.18738,0.286452,0.123482,34.9375,-25.3125,6.3125,-0.446289,-0.644043,-0.84668,-3,-1,-3,2,2,2,-16,11,22555
-2.18738,0.286452,0.123482,34.9375,-25.3125,6.3125,-0.446289,-0.644043,-0.84668,-4,0,-3,0,-1,-6,-8,-4,22571
-2.17765,0.296898,0.116012,46.125,-18.5,33.5625,0.230469,-0.509277,-0.802734,9,-1,2,-1,-2,3,19,15,22588
-2.17765,0.296898,0.116012,46.125,-18.5,33.5625,0.230469,-0.509277,-0.802734,0,-4,1,-3,-2,-3,-1,-1,22605
-2.15878,0.301294,0.110061,74.8125,-24.5625,56.375,0.498047,-0.466309,-0.594727,-1,-1,4,-1,-3,-3,9,-6,22622
-2.13178,0.32501,0.104135,81.1875,-42.5625,95.6875,0.287109,-0.632324,-0.377441,-9,-2,-2,3,-5,-4,-16,-2,22639
-2.10861,0.36522,0.100601,69.1875,-60.6875,118.125,0.681641,-0.878906,-0.476563,-9,-2,-2,3,-5,-4,-16,-2,22657
-2.07626,0.415222,0.0986547,95.125,-66.75,126.5,2.34082,-1.08594,-0.442383,-10,-4,-11,1,-6,-7,-24,-1,22674
-2.07626,0.415222,0.0986547,95.125,-66.75,126.5,2.34082,-1.08594,-0.442383,11,1,0,-9,1,-3,15,-19,22691
-1.98857,0.566114,0.124654,100.063,-148.688,185.25,2.98828,-1.06934,-0.170898,-1,-2,0,0,1,-1,10,8,22707
-1.98857,0.566114,0.124654,100.063,-148.688,185.25,2.98828,-1.06934,-0.170898,-12,0,-2,13,4,8,-59,15,22724
-1.93845,0.646126,0.152558,98,-148.563,186.688,2.67822,-1.13477,0.0185547,8,-2,6,-10,-3,-6,51,-12,22742
-1.89051,0.722288,0.18336,81.125,-138.125,182.313,2.18066,-1.0498,0.0795898,-6,-4,-5,3,6,3,5,-4,22759
-1.65312,0.978553,0.36741,60.6875,-128.313,147.438,1.36719,0.134766,0.0913086,1,-1,-1,-3,-1,8,2,3,22833
-1.55847,1.02527,0.452255,64.8125,-133.438,134.375,0.91748,0.1875,0.15625,-3,1,2,-2,2,-5,-5,-1,22851
-1.55847,1.02527,0.452255,64.8125,-133.438,134.375,0.91748,0.1875,0.15625,2,-1,-2,0,-4,-9,-4,-9,22868
-1.4484,1.06191,0.551118,68.875,-131.5,113.875,0.487793,0.277344,0.208984,4,4,0,0,-3,-5,4,-1,22885
-1.33612,1.08831,0.651242,65.875,-115.938,93.125,0.206543,0.467285,0.316406,-1,0,3,0,-4,-3,-1,4,22902
-1.21206,1.11337,0.760644,56.75,-86.875,67.3125,-0.0185547,0.679688,0.451172,-2,1,1,1,2,-2,-1,-3,22919
-1.11672,1.13312,0.846786,25.6875,-45.625,34.0625,-0.212402,0.879395,0.524902,-2,-5,-2,-3,1,-4,0,-2,22936
-1.11672,1.13312,0.846786,25.6875,-45.625,34.0625,-0.212402,0.879395,0.524902,1,-5,0,-2,-2,2,1,-1,22953
-1.08963,1.13736,0.886634,-55.5,26.8125,-62.625,-0.0722656,0.757813,0.456055,-1,0,-3,2,0,-4,-2,-1,22970
-1.08963,1.13736,0.886634,-55.5,26.8125,-62.625,-0.0722656,0.757813,0.456055,-3,-7,1,7,2,-1,-6,6,22987
-1.14896,1.12507,0.847883,-89.6875,53.6875,-90.125,0.141113,0.682617,0.40918,-11,-9,-8,-9,0,-3,-17,-1,23004
-1.2593,1.10123,0.761132,-96.3125,83.75,-111,0.227051,0.594727,0.325195,-2,-3,1,-11,2,-3,-1,-2,23021
-1.38733,1.06799,0.665683,-126.938,102.5,-126.75,0.404785,0.435547,0.10498,-8,11,-13,37,10,7,-28,16,23037
-1.54339,1.01979,0.546673,-152.313,156.063,-155.188,1.5625,0.19873,-0.299316,9,-4,1,-18,-7,3,12,-4,23055
-1.72133,0.939484,0.407404,-178.25,236.25,-215.688,2.89453,-0.879883,-0.270508,3,-11,6,7,-18,-8,14,-13,23072
-1.8607,0.842473,0.294988,-148.313,258.625,-227.063,3.80225,-1.06787,-0.229492,3,1,-2,-23,-7,-2,26,-3,23090
-1.96019,0.595055,0.132033,56.6875,142.75,-168.75,2.33594,-0.647461,-0.486816,-3,-2,-3,6,-8,-10,-1,-6,23156
-1.97182,0.527384,0.117252,-10.75,107.813,-165.188,2.14502,-0.0595703,-0.276855,-2,-1,0,3,-7,-2,-11,3,23173
-2.02414,0.467551,0.110296,-140.625,86.875,-148.875,1.91943,-0.046875,-0.433105,-5,0,2,-3,-9,-5,3,-11,23190
-2.09163,0.412083,0.0993244,-180.25,99.625,-127.188,1.29395,-0.753906,-0.595703,-1,-1,1,-1,-4,-3,7,-9,23208
-2.09163,0.412083,0.0993244,-180.25,99.625,-127.188,1.29395,-0.753906,-0.595703,-1,-1,1,-1,-4,-3,7,-9,23224
-2.13548,0.365881,0.0902171,-117.813,79.6875,-83.8125,0.74707,-1.06152,-0.519531,-5,-2,-2,5,-4,-2,-11,-4,23241
-2.15171,0.324075,0.0841242,-45.9375,57.1875,-54.875,0.26123,-0.992188,-0.551758,2,-1,-1,4,7,-5,1,-2,23259
