roll,pitch,yaw, gyro_x, gyro_y, gyro_z, accel_x, accel_y, accel_z, EMG0, EMG1, EMG2, EMG3, EMG4, EMG5, EMG6, EMG7, time
0.410243,-0.698861,1.73162,-20.0625,-4.25,13.8125,0.543457,0.283203,0.678223,0,0,0,0,0,0,0,0,384
0.405199,-0.704419,1.73592,-5.125,-14.25,15.1875,0.579102,0.271973,0.702637,0,0,0,0,0,0,0,0,400
0.405199,-0.704419,1.73592,-5.125,-14.25,15.1875,0.579102,0.271973,0.702637,0,0,0,0,0,0,0,0,417
0.404011,-0.714498,1.73934,5.375,-21.0625,14.4375,0.669922,0.222168,0.648926,0,0,0,0,0,0,0,0,434
0.40736,-0.71569,1.73895,11.0625,-19.375,5.375,0.0493164,0.132324,0.399902,0,0,0,0,0,0,0,0,451
0.408353,-0.717937,1.73667,5.75,-21.375,-2.875,0.294434,0.108887,0.601563,0,0,0,0,0,0,0,0,468
0.408353,-0.717937,1.73667,5.75,-21.375,-2.875,0.294434,0.108887,0.601563,0,0,0,0,0,0,0,0,485
0.40583,-0.728699,1.72334,-18.3125,-15.75,-12.5,0.939941,0.191406,1.24854,0,0,0,0,0,0,0,0,502
0.40583,-0.728699,1.72334,-18.3125,-15.75,-12.5,0.939941,0.191406,1.24854,0,0,0,0,0,0,0,0,518
0.411653,-0.735895,1.71014,-18.375,-16.75,-13.0625,0.254883,0.205566,-0.027832,0,0,0,0,0,0,0,0,535
0.411653,-0.735895,1.71014,-18.375,-16.75,-13.0625,0.254883,0.205566,-0.027832,0,0,0,0,0,0,0,0,552
0.400498,-0.735275,1.70889,-19.25,-13.5625,-12.3125,0.920898,0.213379,1.22705,-2,-5,-10,-8,-2,-4,-4,0,569
0.400498,-0.735275,1.70889,-19.25,-13.5625,-12.3125,0.920898,0.213379,1.22705,-1,-10,13,9,0,0,1,-1,586
0.409283,-0.743364,1.69592,-12.25,-14.1875,-11.125,0.348145,0.249512,-0.0327148,0,1,-7,-6,1,1,-1,1,604
0.401072,-0.741559,1.69642,-7.8125,-11.625,-8.625,0.811523,0.187988,1.1665,-1,5,-7,1,-3,-2,-3,-3,621
0.410377,-0.751807,1.68724,-2.8125,-10.375,-5.0625,0.577637,0.272461,0.0493164,-4,1,2,-6,-3,-2,-1,0,638
0.415893,-0.761237,1.68492,10.75,-1.3125,-6.25,0.584961,0.16748,0.574707,-2,-12,-1,-6,-3,0,-4,-2,713
0.41875,-0.76102,1.68391,10,-3.1875,-5.0625,0.556641,0.179688,0.592773,-1,5,16,8,0,-4,-3,-2,730
0.419936,-0.76084,1.6841,10.0625,-3.25,-3.75,0.564941,0.154297,0.618652,0,4,0,8,2,-1,-1,1,746
0.419936,-0.76084,1.6841,10.0625,-3.25,-3.75,0.564941,0.154297,0.618652,-1,3,-14,-5,-4,-3,-3,-1,763
0.422588,-0.760895,1.68431,13.4375,-2.4375,-4.75,0.567871,0.140137,0.596191,1,-1,-3,-5,-3,0,2,-3,781
0.425752,-0.759208,1.68333,12.8125,1.375,-8.3125,0.574707,0.155273,0.595703,-2,-12,3,6,0,0,-1,-2,798
0.429361,-0.748032,1.67837,2.375,12.1875,-17.1875,0.579102,0.200195,0.636719,1,-4,-1,-4,1,2,-1,-1,816
0.429361,-0.748032,1.67837,2.375,12.1875,-17.1875,0.579102,0.200195,0.636719,-3,-6,-4,-1,-1,0,0,0,833
0.43013,-0.739424,1.67355,-4.0625,14.9375,-20.625,0.608887,0.247559,0.673828,-3,-6,-4,-1,-1,0,0,0,850
0.431397,-0.729824,1.66699,-5,15.25,-26.3125,0.622559,0.246094,0.716309,2,-6,-3,-1,-1,0,0,0,867
0.436329,-0.717957,1.65521,-5.0625,11.8125,-36.5625,0.625,0.317383,0.824707,2,-6,-3,-1,-1,0,0,0,883
0.436329,-0.717957,1.65521,-5.0625,11.8125,-36.5625,0.625,0.317383,0.824707,-2,3,4,-2,2,-2,1,0,900
0.436329,-0.717957,1.65521,-5.0625,11.8125,-36.5625,0.625,0.317383,0.824707,0,-3,-6,-2,-1,0,-2,-2,917
0.446384,-0.708731,1.63621,-8.625,-1.9375,-43.5625,0.643555,0.441406,0.861816,2,-3,4,6,-4,-2,-1,-2,933
0.470169,-0.700935,1.59517,-6.5625,-15.3125,-37.0625,0.762207,0.531738,0.852539,0,-3,-2,-5,-2,1,1,0,950
0.470169,-0.700935,1.59517,-6.5625,-15.3125,-37.0625,0.762207,0.531738,0.852539,0,4,1,6,1,0,1,-2,967
0.509684,-0.692874,1.50497,-29.125,2,-35.5,0.561523,0.425293,0.566406,-3,-1,-4,-5,-3,-1,-5,-1,1049
0.511876,-0.686658,1.49136,-23.125,-0.125,-29.625,0.53125,0.430664,0.586426,-2,2,-7,-6,-7,-4,-1,-1,1067
0.511876,-0.686658,1.49136,-23.125,-0.125,-29.625,0.53125,0.430664,0.586426,-3,-2,-3,3,-3,-4,-2,-2,1084
0.520603,-0.680889,1.47025,-5.75,-7.4375,-19,0.563965,0.414063,0.628418,0,-6,3,2,0,-1,-3,0,1101
0.520603,-0.680889,1.47025,-5.75,-7.4375,-19,0.563965,0.414063,0.628418,-3,-10,-7,-9,-2,-1,-1,1,1118
0.525973,-0.680522,1.46067,-6,-9.25,-15.0625,0.602539,0.460938,0.629883,0,-5,-3,0,-2,0,0,0,1134
0.525973,-0.680522,1.46067,-6,-9.25,-15.0625,0.602539,0.460938,0.629883,2,3,-1,-3,-4,-1,1,-1,1151
0.525973,-0.680522,1.46067,-6,-9.25,-15.0625,0.602539,0.460938,0.629883,-2,-4,-3,-2,2,-1,0,-2,1168
0.530118,-0.682799,1.44205,-9.5,1.875,-13.125,0.655762,0.362793,0.554199,-3,-6,-4,-4,0,-4,-1,-2,1185
0.530118,-0.682799,1.44205,-9.5,1.875,-13.125,0.655762,0.362793,0.554199,-3,-1,-3,-2,-3,-2,-1,-2,1203
0.530118,-0.682799,1.44205,-9.5,1.875,-13.125,0.655762,0.362793,0.554199,-3,4,-4,-3,-2,-2,-2,-3,1219
0.530029,-0.675219,1.43472,-6.625,11.1875,-14.0625,0.544434,0.309082,0.521484,2,-1,2,1,-1,1,1,0,1236
0.530029,-0.675219,1.43472,-6.625,11.1875,-14.0625,0.544434,0.309082,0.521484,-3,-17,-3,-2,-1,-1,-1,0,1253
0.530029,-0.675219,1.43472,-6.625,11.1875,-14.0625,0.544434,0.309082,0.521484,-2,5,-4,-7,-7,-5,-2,-2,1270
0.533252,-0.662484,1.43313,7.5625,8,-2.0625,0.470703,0.322754,0.516602,0,10,-4,-6,-5,-1,-2,-2,1287
0.536607,-0.660431,1.43484,11,6.625,1.3125,0.464844,0.339355,0.521484,0,-1,2,0,0,-1,1,0,1304
0.546137,-0.659247,1.44367,13.75,3.6875,7.125,0.480957,0.338379,0.551758,-4,3,-1,-4,-3,0,-2,1,1372
0.546137,-0.659247,1.44367,13.75,3.6875,7.125,0.480957,0.338379,0.551758,-1,-3,-10,3,-2,-6,0,-1,1389
0.545886,-0.657897,1.45207,0.1875,0.875,14.375,0.503906,0.467285,0.662109,-2,-5,3,-4,3,2,-1,-2,1405
0.541725,-0.660648,1.45922,-0.5,-2.3125,21.75,0.539551,0.438965,0.682129,-3,-13,-9,-17,-9,-2,-3,-2,1422
0.541725,-0.660648,1.45922,-0.5,-2.3125,21.75,0.539551,0.438965,0.682129,0,7,-4,2,1,3,0,-1,1440
0.53795,-0.665906,1.46869,5.375,-3.25,26.6875,0.603516,0.414063,0.688965,-3,10,-10,-2,-2,-3,-1,-1,1457
0.53795,-0.665906,1.46869,5.375,-3.25,26.6875,0.603516,0.414063,0.688965,0,-18,-7,1,1,-2,1,-2,1475
0.533376,-0.676399,1.48615,6,-3.875,26.1875,0.664551,0.484375,0.742188,-1,-5,-2,-13,-8,-2,-2,-2,1492
0.528174,-0.68155,1.49465,-1.125,-6.5625,26.9375,0.668945,0.490234,0.788574,-1,21,11,7,0,-1,-1,0,1509
0.528174,-0.68155,1.49465,-1.125,-6.5625,26.9375,0.668945,0.490234,0.788574,0,-5,3,0,1,0,-2,-1,1526
0.512003,-0.695655,1.5128,-8.375,-11.75,29.25,0.70166,0.444336,0.795898,-1,-8,-4,1,-1,0,-1,-1,1544
0.512003,-0.695655,1.5128,-8.375,-11.75,29.25,0.70166,0.444336,0.795898,-3,1,-6,-2,-1,-1,-1,-3,1560
0.503336,-0.702311,1.52045,-11.875,-12.0625,27.4375,0.704102,0.475098,0.810059,1,6,5,3,2,0,0,0,1577
0.503336,-0.702311,1.52045,-11.875,-12.0625,27.4375,0.704102,0.475098,0.810059,1,1,-3,-2,-3,-1,0,0,1594
0.485665,-0.719041,1.53487,-16.5,-16.9375,31.5625,0.759277,0.502441,0.798828,1,-4,6,-2,-1,2,-1,0,1610
0.485665,-0.719041,1.53487,-16.5,-16.9375,31.5625,0.759277,0.502441,0.798828,0,-6,-5,-3,-1,-1,0,0,1627
0.450804,-0.75282,1.57513,-9.4375,15.9375,2.25,0.478027,0.225098,0.455566,-1,4,1,1,-2,1,-1,0,1739
0.44139,-0.7481,1.58036,-17.875,14.375,6.1875,0.467285,0.259277,0.507813,-2,3,-6,-10,-6,-3,-3,-2,1755
0.44139,-0.7481,1.58036,-17.875,14.375,6.1875,0.467285,0.259277,0.507813,-3,-5,-17,-2,-2,-1,-3,-1,1772
0.425947,-0.74537,1.59379,-0.125,2.3125,11.75,0.544922,0.252441,0.636719,-1,-2,-2,-3,0,-3,1,-1,1789
0.425947,-0.74537,1.59379,-0.125,2.3125,11.75,0.544922,0.252441,0.636719,-2,8,-2,2,-1,-1,0,-2,1805
0.427016,-0.747686,1.59869,11.9375,-5.5,14.25,0.580566,0.302734,0.64209,0,4,3,3,2,2,0,-2,1822
0.427016,-0.747686,1.59869,11.9375,-5.5,14.25,0.580566,0.302734,0.64209,0,-1,1,0,2,-2,1,-1,1840
0.432389,-0.756825,1.61064,22.875,-3.25,11.0625,0.63916,0.193848,0.59082,-2,-12,-5,-5,-5,-4,-4,1,1857
0.436038,-0.757021,1.61321,18,1.125,3.625,0.598633,0.229492,0.581055,0,-3,2,2,0,0,0,0,1874
0.436038,-0.757021,1.61321,18,1.125,3.625,0.598633,0.229492,0.581055,0,3,0,-1,-3,-1,-1,-1,1891
0.436038,-0.757021,1.61321,18,1.125,3.625,0.598633,0.229492,0.581055,-3,4,-21,-4,0,0,-2,1,1908
0.433101,-0.751287,1.61937,2.875,7.4375,-0.1875,0.526855,0.17627,0.611816,1,0,7,-6,0,0,-2,-1,1925
0.431482,-0.747515,1.62229,6.375,6.625,-2.5625,0.510254,0.161133,0.615234,-1,-13,4,-1,0,-2,-2,-2,1942
0.431482,-0.747515,1.62229,6.375,6.625,-2.5625,0.510254,0.161133,0.615234,0,9,-18,15,2,1,0,-2,1960
0.431482,-0.747515,1.62229,6.375,6.625,-2.5625,0.510254,0.161133,0.615234,-6,-20,-12,0,-1,-2,-1,1,1976
0.431482,-0.747515,1.62229,6.375,6.625,-2.5625,0.510254,0.161133,0.615234,-4,3,14,-1,0,-1,0,0,1993
0.439319,-0.728761,1.6095,-4.6875,-4.0625,-19.6875,0.555176,0.183105,0.634766,-1,4,-8,5,0,4,-1,-2,2053
0.439319,-0.728761,1.6095,-4.6875,-4.0625,-19.6875,0.555176,0.183105,0.634766,0,-3,18,-4,0,-1,0,0,2071
0.439319,-0.728761,1.6095,-4.6875,-4.0625,-19.6875,0.555176,0.183105,0.634766,-7,-5,-11,-10,-6,-2,-1,0,2087
0.447039,-0.723454,1.57812,-2.125,-4.25,-34.75,0.615234,0.17334,0.645508,-1,7,-2,-2,0,-5,-5,-1,2103
0.447039,-0.723454,1.57812,-2.125,-4.25,-34.75,0.615234,0.17334,0.645508,0,-4,10,5,1,-2,1,-1,2119
0.447039,-0.723454,1.57812,-2.125,-4.25,-34.75,0.615234,0.17334,0.645508,5,-14,-8,-8,-1,-1,0,-1,2135
0.460352,-0.709872,1.55081,-6.625,6.625,-37.5625,0.639648,0.284668,0.673828,2,2,-1,0,0,-1,-2,-3,2151
0.463059,-0.700611,1.53936,-11.625,13.5,-36.1875,0.668457,0.307617,0.691895,0,5,-16,-3,-3,-2,-1,1,2168
0.463059,-0.700611,1.53936,-11.625,13.5,-36.1875,0.668457,0.307617,0.691895,-3,1,-4,3,4,-2,-4,-2,2185
0.469606,-0.677836,1.52148,1.3125,19.9375,-33.9375,0.70166,0.363281,0.842773,-2,-11,1,1,-1,-1,-2,1,2203
0.469606,-0.677836,1.52148,1.3125,19.9375,-33.9375,0.70166,0.363281,0.842773,0,5,3,7,-4,1,1,-2,2220
0.477126,-0.666013,1.51217,4.5625,15.5625,-31.125,0.681641,0.466309,0.885742,1,-11,1,-6,-2,-2,1,-2,2238
0.477126,-0.666013,1.51217,4.5625,15.5625,-31.125,0.681641,0.466309,0.885742,-1,1,-22,-7,-3,-4,0,2,2254
0.491703,-0.647992,1.49265,3.5,1.3125,-27.9375,0.639648,0.456055,0.908203,-3,9,-4,-4,2,1,2,0,2271
0.491703,-0.647992,1.49265,3.5,1.3125,-27.9375,0.639648,0.456055,0.908203,-1,1,-8,4,3,0,0,-2,2287
0.491703,-0.647992,1.49265,3.5,1.3125,-27.9375,0.639648,0.456055,0.908203,-2,-5,-15,-1,-2,2,-2,-2,2304
0.490696,-0.611754,1.4394,-16.8125,6.375,-7.5625,0.535645,0.446289,0.549316,-1,6,2,1,2,-3,-3,-3,2407
0.491119,-0.611431,1.43595,-10.25,3.3125,-6.5625,0.541992,0.390137,0.518555,0,2,-20,-5,-2,-1,1,1,2424
0.491493,-0.61127,1.43235,-9.9375,2.8125,-7.5,0.525879,0.366699,0.501953,3,-11,-5,3,0,2,-1,0,2441
0.491493,-0.61127,1.43235,-9.9375,2.8125,-7.5,0.525879,0.366699,0.501953,-7,0,-1,-4,-4,-2,0,-1,2458
0.490238,-0.610695,1.42869,-13.5625,3.0625,-7.875,0.503418,0.351074,0.496582,-1,4,7,8,0,-2,1,1,2475
0.488166,-0.609767,1.42552,-14.9375,3.375,-7.0625,0.487305,0.34082,0.508789,1,5,-12,-10,-3,-2,-1,-2,2493
0.487018,-0.609001,1.42339,-10.4375,3.375,-5.25,0.477051,0.333496,0.50293,-2,-7,0,-4,-4,0,-2,-1,2510
0.487018,-0.609001,1.42339,-10.4375,3.375,-5.25,0.477051,0.333496,0.50293,0,-6,4,4,1,1,-1,-1,2526
0.488034,-0.608272,1.4214,-4.0625,3.25,-4.0625,0.461914,0.338867,0.499512,0,-6,4,4,1,1,-1,-1,2544
0.490248,-0.607593,1.42003,0.375,2.625,-2.1875,0.446289,0.342773,0.505371,1,11,6,3,2,2,-2,0,2560
0.492201,-0.606602,1.4198,1.5,2.6875,1.0625,0.424316,0.35498,0.529297,1,11,6,3,2,2,-2,0,2578
0.492853,-0.606081,1.42083,2,0.75,4,0.413574,0.342773,0.565918,-2,-6,3,2,-1,-2,1,-1,2595
0.493603,-0.605944,1.42264,4.0625,-1.5,5.8125,0.395996,0.331543,0.596191,0,-4,-9,-3,-2,0,0,0,2612
0.493914,-0.60617,1.42485,4.625,-2.1875,6.9375,0.398438,0.329102,0.61377,-2,8,3,-5,0,-4,-2,-2,2630
0.493993,-0.606266,1.42728,3.5,-3.1875,8.375,0.398438,0.35498,0.640625,0,1,0,5,1,-3,-3,-1,2648
0.493993,-0.606266,1.42728,3.5,-3.1875,8.375,0.398438,0.35498,0.640625,-2,-5,-10,-4,-2,0,0,-2,2665
0.467142,-0.64163,1.46594,0.9375,-17.875,36.1875,0.719238,0.444336,0.865234,0,6,12,7,2,-1,-1,0,2775
0.467142,-0.64163,1.46594,0.9375,-17.875,36.1875,0.719238,0.444336,0.865234,0,-5,-3,1,1,-1,-3,0,2791
0.459393,-0.661773,1.48588,4.5625,-15.625,34.3125,0.723145,0.479004,0.884277,1,-6,-6,-3,-5,-3,-4,0,2808
0.453343,-0.670861,1.49794,-2.625,-14.3125,42.5625,0.749023,0.572754,0.916016,0,-7,11,4,-1,0,1,-1,2826
0.444342,-0.683334,1.51266,-4.25,-18.5,49.5,0.782715,0.512695,0.879395,-2,-1,1,-2,-2,-2,-1,1,2843
0.437222,-0.697791,1.52873,10.0625,-19.6875,48.125,0.77002,0.345215,0.770996,4,8,3,1,4,1,5,-2,2860
0.435265,-0.711603,1.54434,25.6875,-12.8125,41.125,0.730957,0.216797,0.584961,-2,0,-4,-10,-4,-1,1,0,2876
0.435265,-0.711603,1.54434,25.6875,-12.8125,41.125,0.730957,0.216797,0.584961,-2,-4,-1,3,1,-1,1,-2,2893
0.433489,-0.71981,1.55753,23.75,-0.3125,28,0.65625,0.14209,0.481934,-2,-4,-1,3,1,-1,1,-2,2910
0.42883,-0.720949,1.56836,10.875,11.8125,16.5,0.551758,0.132813,0.460449,-2,-4,-3,0,-1,-2,-2,0,2927
0.420452,-0.717604,1.57828,-3.1875,18.875,12.375,0.477051,0.160156,0.473633,-2,5,3,-4,-3,-2,-3,-3,2943
0.409163,-0.713506,1.58877,-10.3125,19.1875,14.4375,0.477051,0.181641,0.521973,-3,5,0,2,0,1,2,0,2961
0.409163,-0.713506,1.58877,-10.3125,19.1875,14.4375,0.477051,0.181641,0.521973,-2,-5,1,-2,-1,0,-2,-2,2978
0.399797,-0.711551,1.59912,-6.5,12.5625,18.5,0.506836,0.226563,0.566895,-2,-3,0,1,1,2,0,2,2996
0.394357,-0.713356,1.61019,3.875,5.125,24.4375,0.550781,0.257813,0.572754,-2,8,-4,4,-1,-3,-2,0,3012
0.39304,-0.717596,1.62173,18.0625,0.4375,26.5625,0.572266,0.225586,0.564453,0,1,-2,-5,3,2,1,-1,3028
0.406638,-0.728514,1.65811,21.625,0.5625,14.9375,0.499512,0.192871,0.593262,-1,-4,-15,-2,-2,-1,-3,-2,3121
0.407351,-0.729578,1.66538,20.25,-0.6875,12,0.49707,0.157715,0.599121,-2,-1,1,9,-16,-1,-2,0,3139
0.409965,-0.729713,1.67041,22.625,-1.3125,7.75,0.492676,0.162598,0.616699,-3,-4,7,-7,-9,0,-1,0,3156
0.409965,-0.729713,1.67041,22.625,-1.3125,7.75,0.492676,0.162598,0.616699,-1,6,10,5,1,1,-3,-2,3174
0.417517,-0.730214,1.67607,18.75,-2.5625,1.0625,0.486816,0.145508,0.588867,0,5,4,5,-6,0,1,-1,3190
0.419579,-0.728773,1.67759,16.875,0.625,-4.1875,0.464844,0.0917969,0.577148,-2,3,4,3,3,-2,-3,-1,3208
0.419579,-0.728773,1.67759,16.875,0.625,-4.1875,0.464844,0.0917969,0.577148,-2,-1,-3,-3,0,-3,-2,0,3225
0.42199,-0.723927,1.67764,15.125,5.5625,-10.625,0.433594,0.0976563,0.597168,-2,0,-8,-6,-3,0,-2,-2,3241
0.424185,-0.7163,1.67516,8.125,7.625,-15.5625,0.404297,0.149414,0.641602,1,-6,6,-2,-2,-2,0,-1,3259
0.423957,-0.708577,1.672,2.3125,7,-18.75,0.415039,0.125,0.67041,-5,-14,2,3,-2,-3,-1,-3,3275
0.423212,-0.699788,1.66766,-0.25,9.125,-24.125,0.45459,0.112793,0.708984,-5,-14,2,3,-2,-3,-1,-3,3292
0.425237,-0.690053,1.66134,1.375,10.8125,-26.9375,0.495605,0.188477,0.745117,-2,10,1,5,1,1,0,0,3309
0.42834,-0.679944,1.65368,-0.875,13.75,-27.8125,0.561035,0.268066,0.752441,-1,9,1,0,-4,-5,-2,-1,3325
0.431921,-0.6703,1.64495,-1.5625,12.75,-31.0625,0.618164,0.290039,0.801758,-1,-3,4,-2,-6,1,2,-2,3342
0.438163,-0.65945,1.63464,1.5625,12.4375,-33.125,0.686035,0.398926,0.941895,-1,-8,-4,-5,-4,-2,-5,-3,3360
0.438163,-0.65945,1.63464,1.5625,12.4375,-33.125,0.686035,0.398926,0.941895,3,6,-20,-4,-2,-2,-2,2,3377
0.479321,-0.654525,1.59641,10.4375,1.875,-18.625,0.888184,0.556152,0.740234,-1,-15,-1,2,0,0,-2,-1,3459
0.480613,-0.649843,1.58192,-23.75,12.1875,-17.3125,0.770996,0.437012,0.64209,1,9,6,-1,-1,0,-1,0,3475
0.480613,-0.649843,1.58192,-23.75,12.1875,-17.3125,0.770996,0.437012,0.64209,-5,0,2,-2,-4,-4,-1,0,3492
0.478666,-0.644522,1.57623,-20.9375,17.125,-18.3125,0.692871,0.422363,0.589844,-3,-8,-11,-9,-17,-4,-1,-2,3509
0.478666,-0.644522,1.57623,-20.9375,17.125,-18.3125,0.692871,0.422363,0.589844,-2,-7,-7,-4,-3,-2,-2,-3,3526
0.478773,-0.638278,1.57092,-19.3125,18.5625,-15.375,0.630371,0.491211,0.559082,-1,6,-1,-4,0,-1,-1,1,3544
0.476313,-0.632981,1.56842,-19.625,17.5,-8,0.598145,0.463379,0.568848,-4,-1,-5,0,-2,1,-2,-1,3561
0.472871,-0.629159,1.5684,-16.5625,14.6875,-2.3125,0.589844,0.435059,0.598145,2,2,4,1,0,0,0,-1,3577
0.472298,-0.628081,1.56876,-7.75,9.1875,1.5,0.598145,0.431641,0.587891,-3,-2,-1,-5,-1,1,0,0,3595
0.473591,-0.628836,1.57032,0.9375,7.375,4.6875,0.589844,0.379395,0.527832,-1,-3,-2,0,2,1,-1,-1,3612
0.474878,-0.628844,1.57224,2.8125,9.5625,3.125,0.542969,0.327637,0.484375,-3,-1,-2,0,0,1,-3,-2,3629
0.475683,-0.62705,1.57383,1.125,11.5,1.5,0.476074,0.310059,0.456543,-1,-3,0,2,-2,-3,-2,0,3646
0.474393,-0.624288,1.57633,-1.5625,12.4375,1.875,0.430664,0.280762,0.463867,0,-1,2,0,1,1,0,-1,3664
0.472112,-0.62201,1.58039,-0.875,11.6875,4.75,0.413086,0.254883,0.472168,1,-2,0,2,1,2,-3,-2,3682
0.472112,-0.62201,1.58039,-0.875,11.6875,4.75,0.413086,0.254883,0.472168,-3,-2,-6,-5,-1,-1,-1,-3,3699
0.466618,-0.617513,1.58836,-0.6875,6.5,6.1875,0.342773,0.241211,0.51416,-3,2,-5,-4,-4,0,0,0,3715
0.454627,-0.632506,1.60493,-3,-18.625,20.375,0.422852,0.320313,0.640625,-1,-1,-3,-1,-2,-1,-1,-3,3799
0.454627,-0.632506,1.60493,-3,-18.625,20.375,0.422852,0.320313,0.640625,-1,1,8,-6,-6,-2,-3,0,3815
0.449601,-0.640994,1.60976,-8,-21.25,24,0.480469,0.356934,0.681641,2,-2,-15,0,-2,-2,-2,-1,3832
0.44333,-0.650032,1.61472,-11.8125,-22.875,25.5,0.536621,0.400391,0.743164,2,-2,-15,0,-2,-2,-2,-1,3850
0.437373,-0.659687,1.61949,-12.8125,-25.0625,27.1875,0.623047,0.47168,0.830566,-1,5,1,1,1,-1,-1,-1,3868
0.437373,-0.659687,1.61949,-12.8125,-25.0625,27.1875,0.623047,0.47168,0.830566,-3,-9,-23,-9,-6,-3,-2,-3,3885
0.433181,-0.67241,1.62512,-7.25,-29.625,32.5,0.719727,0.50293,0.865234,-1,-9,-20,-2,-2,-1,-3,-1,3902
0.429941,-0.700253,1.63612,5.1875,-33.1875,29.3125,0.782227,0.464844,0.894043,-1,6,7,2,4,0,1,-1,3919
0.429941,-0.700253,1.63612,5.1875,-33.1875,29.3125,0.782227,0.464844,0.894043,0,1,4,-2,-1,-3,0,-3,3935
0.430149,-0.713265,1.64031,4.0625,-32.3125,29.5,0.796387,0.501953,0.88916,-2,-1,7,-2,0,1,-2,-1,3953
0.427518,-0.725087,1.64636,-3.8125,-27,33.875,0.837891,0.55957,0.894043,-2,3,-6,2,2,-1,-3,1,3969
0.422542,-0.740061,1.65545,-6.25,-28.625,43.0625,0.90332,0.572266,0.844238,2,-4,6,3,3,1,1,-1,3987
0.417962,-0.759222,1.66851,11.6875,-28,43.5625,0.915039,0.311035,0.662598,-3,-6,2,-2,-4,-2,2,-1,4004
0.418938,-0.774114,1.68019,32.25,-17.6875,27.625,0.801758,0.0922852,0.51416,0,-2,1,0,-1,-1,4,-1,4021
0.418938,-0.774114,1.68019,32.25,-17.6875,27.625,0.801758,0.0922852,0.51416,-4,2,2,3,1,-2,-5,0,4038
0.426219,-0.781398,1.68686,39.375,-7.125,12.25,0.649414,0.0952148,0.470703,2,1,5,4,4,-1,-3,-1,4055
0.415829,-0.794057,1.71853,5.4375,-11.4375,20.8125,0.616211,0.268066,0.641602,0,6,4,-2,2,-1,0,-2,4159
0.415251,-0.799317,1.72491,12.25,-11.9375,18,0.608887,0.243652,0.607422,-1,9,-2,-3,-1,-1,0,-1,4176
0.415251,-0.799317,1.72491,12.25,-11.9375,18,0.608887,0.243652,0.607422,-3,-3,0,0,-1,-2,0,-1,4193
0.418928,-0.803753,1.73471,15,0.3125,7.625,0.535156,0.194336,0.520508,-1,-6,-2,-5,-6,-2,-2,-2,4210
0.416376,-0.800412,1.73881,2.75,7.0625,3,0.468262,0.180176,0.512695,0,-1,2,3,2,-1,-2,-1,4226
0.411336,-0.795273,1.74281,-2.25,9.75,0,0.429199,0.140137,0.521973,-3,9,-3,-1,-4,1,-2,-3,4244
0.406849,-0.790018,1.74595,-1.3125,9.375,-2.25,0.411621,0.115234,0.511719,0,-5,-2,-3,-1,-7,-2,0,4260
0.40421,-0.784719,1.74755,0,8.6875,-5.5,0.403809,0.116699,0.505859,0,0,4,2,0,1,2,-1,4278
0.40421,-0.784719,1.74755,0,8.6875,-5.5,0.403809,0.116699,0.505859,-1,3,-8,-6,-3,-2,-2,-2,4293
0.403019,-0.779727,1.74782,2.4375,7.375,-7.5,0.401855,0.100586,0.493164,0,-2,0,-7,-4,-2,-1,-1,4311
0.40271,-0.774661,1.74741,3.375,7.8125,-10.5,0.413086,0.0917969,0.5,-1,-4,3,3,0,4,2,-1,4329
0.402773,-0.767333,1.74492,1.25,10.1875,-15.9375,0.419922,0.106445,0.54541,0,-6,0,-6,-3,0,-2,1,4346
0.402836,-0.758334,1.74078,-3.375,11.375,-19.4375,0.439453,0.154785,0.609375,-4,-5,0,0,2,1,-2,-1,4363
0.402836,-0.758334,1.74078,-3.375,11.375,-19.4375,0.439453,0.154785,0.609375,0,10,2,-2,-5,-3,-1,0,4380
0.402624,-0.749158,1.73608,-4.1875,12.75,-21.6875,0.500488,0.158691,0.653809,-3,-1,-3,-8,-2,0,-3,-2,4397
0.404042,-0.739233,1.73101,0.4375,16.5625,-24.8125,0.579102,0.168457,0.696289,-3,-8,4,8,3,-1,-3,-2,4414
0.449115,-0.667186,1.68465,14.1875,20.25,-32.3125,0.75,0.537109,1.03223,1,3,4,3,0,-2,0,-1,4516
0.463827,-0.659919,1.67575,24.9375,8.125,-24.5625,0.802734,0.519043,0.967773,3,5,-11,0,-2,-3,0,-1,4533
0.478202,-0.655609,1.66867,27,9.625,-21.3125,0.860352,0.480469,0.854492,-5,-4,-1,-5,-3,-3,2,-2,4549
0.489484,-0.649461,1.65961,8.75,14.8125,-25.25,0.845703,0.559082,0.775391,-4,-5,-2,-2,-4,-2,-4,-3,4567
0.491937,-0.641482,1.6509,-15.625,18.375,-25.3125,0.79541,0.570313,0.766113,-1,-19,1,0,2,3,-5,-1,4584
0.488058,-0.634607,1.645,-27.4375,19.1875,-20.25,0.762695,0.505859,0.714355,0,2,-1,-4,-2,-4,-3,-2,4601
0.488058,-0.634607,1.645,-27.4375,19.1875,-20.25,0.762695,0.505859,0.714355,-3,9,-5,-3,-1,-1,0,0,4618
0.485331,-0.628654,1.63982,-21.6875,17.4375,-18.6875,0.715332,0.458008,0.67627,-2,-7,-1,-5,-5,-4,0,0,4635
0.486976,-0.62317,1.63448,-12.3125,14.25,-15.75,0.662598,0.501953,0.666504,-3,-4,-17,-7,-3,-1,0,0,4652
0.48913,-0.619908,1.62958,-9.25,8.5,-11.5625,0.625488,0.48584,0.638672,1,-10,0,-1,-1,0,-1,-1,4668
0.48913,-0.619908,1.62958,-9.25,8.5,-11.5625,0.625488,0.48584,0.638672,1,4,-3,3,-1,0,-1,-1,4685
0.49135,-0.618955,1.62642,-3.3125,5.0625,-7.6875,0.608887,0.407715,0.602539,-2,9,3,0,1,0,1,1,4702
0.49467,-0.619131,1.62393,2.1875,4.5625,-6.125,0.57666,0.347656,0.518555,1,2,-3,-6,-5,0,0,0,4719
0.496294,-0.618093,1.62143,-0.3125,6.25,-8.9375,0.501465,0.268555,0.460938,0,-7,-2,0,2,2,0,-2,4737
0.495586,-0.615137,1.61933,-5,8.25,-11,0.400879,0.210938,0.422852,1,3,-3,-4,-3,-3,0,-1,4754
0.49263,-0.611525,1.61772,-9.5,7.875,-9.9375,0.332031,0.182129,0.400879,-2,4,2,2,0,-1,0,-2,4771
0.462478,-0.59059,1.61336,-23.4375,3.8125,-5.0625,0.300293,0.26709,0.587402,0,4,-7,-8,-3,-1,1,1,4863
0.451724,-0.58814,1.61343,-30.6875,-0.1875,0.3125,0.380371,0.334961,0.678711,1,7,9,5,2,4,0,1,4880
0.451724,-0.58814,1.61343,-30.6875,-0.1875,0.3125,0.380371,0.334961,0.678711,-1,-4,-10,-9,-7,-4,0,1,4898
0.439773,-0.589182,1.61459,-34.25,-4.75,6.5,0.478027,0.375,0.731934,-2,-5,-6,5,0,0,0,-1,4915
0.426639,-0.591109,1.61604,-37.75,-6.5,8.625,0.527344,0.404785,0.788086,1,-7,-21,-2,1,2,0,-1,4932
0.413673,-0.59586,1.61855,-36.5,-11.6875,14.5625,0.610352,0.447754,0.866211,-1,6,-8,-1,-4,-5,0,-2,4949
0.413673,-0.59586,1.61855,-36.5,-11.6875,14.5625,0.610352,0.447754,0.866211,0,4,5,1,1,1,-1,0,4966
0.402091,-0.604825,1.62347,-31.6875,-16.5,24.3125,0.73291,0.501953,0.911133,0,2,-6,-9,-4,-4,-2,0,4983
0.392716,-0.617304,1.63034,-19.3125,-23.125,30.1875,0.766113,0.450195,0.914063,-2,-1,-1,-4,-1,-2,-1,0,5000
0.390671,-0.63221,1.63722,3.375,-30.4375,31.125,0.765137,0.407715,0.893555,0,-4,3,-5,2,-1,1,-3,5017
0.394536,-0.648046,1.64249,12.125,-32.375,33.3125,0.82959,0.523926,0.893555,-2,-5,-8,-4,0,-1,-3,-1,5034
0.396878,-0.665576,1.64951,4.5625,-32.875,42.6875,0.890137,0.644043,0.874512,-6,-13,3,0,-2,-2,-3,1,5051
0.393377,-0.687842,1.6614,4.1875,-35,50,0.927734,0.44873,0.741211,3,11,-5,-1,-2,-1,0,-2,5068
0.393377,-0.687842,1.6614,4.1875,-35,50,0.927734,0.44873,0.741211,-1,-5,-6,-5,-1,1,3,-2,5085
0.38977,-0.708832,1.67409,14.125,-28.5625,40.1875,0.898438,0.217773,0.609863,-1,-17,3,0,2,1,-3,-1,5103
0.393719,-0.731777,1.68922,15.0625,-9.4375,20.3125,0.763184,0.3125,0.601074,-2,10,-2,-1,-1,-1,-2,-1,5120
0.393626,-0.754009,1.71748,23.875,-11.9375,20,0.57373,0.253906,0.617676,-3,1,0,-2,0,2,2,-1,5215
0.395998,-0.758585,1.72469,23.375,-10.5625,17.875,0.498047,0.183594,0.577148,3,-3,3,0,-2,-1,-3,0,5233
0.397825,-0.760868,1.7321,24.0625,-6.875,15.3125,0.412109,0.136719,0.541504,-1,-6,-2,-4,-3,3,0,0,5250
0.398509,-0.76081,1.73906,19.75,-2.375,12.0625,0.346191,0.124512,0.499023,0,-6,2,3,-1,1,0,0,5266
0.396299,-0.758541,1.74592,11.4375,1.875,10.875,0.306152,0.123047,0.499023,-1,2,1,2,-2,-3,-1,-3,5283
0.389902,-0.755125,1.75407,2.4375,4.8125,11.1875,0.299316,0.105469,0.521484,-2,10,1,3,4,-1,-2,-1,5300
0.389902,-0.755125,1.75407,2.4375,4.8125,11.1875,0.299316,0.105469,0.521484,0,-8,-6,-4,-6,0,0,-2,5317
0.38231,-0.751118,1.7627,1,6.375,10.5625,0.313477,0.09375,0.540039,0,-17,6,3,0,1,-4,-1,5334
0.375818,-0.747008,1.77067,3.4375,6.875,8.8125,0.337891,0.0830078,0.552246,0,2,8,5,3,1,1,3,5350
0.370807,-0.742586,1.77826,7.75,8.125,7.125,0.358398,0.0712891,0.566406,-2,9,-8,0,-5,-3,0,-1,5368
0.365901,-0.737064,1.78592,8.3125,11.875,4.8125,0.368164,0.0546875,0.569336,-1,1,-2,-2,-2,-2,-2,-1,5384
0.365901,-0.737064,1.78592,8.3125,11.875,4.8125,0.368164,0.0546875,0.569336,-3,-5,-4,1,1,-2,-3,0,5401
0.353398,-0.718348,1.79782,-0.625,16.625,-1.375,0.37793,0.115234,0.729004,0,-5,-7,-10,-4,-1,0,-1,5418
0.353398,-0.718348,1.79782,-0.625,16.625,-1.375,0.37793,0.115234,0.729004,-2,3,0,0,3,1,2,-1,5435
0.34664,-0.708893,1.80284,-3.1875,15.1875,-0.5625,0.431641,0.141113,0.777832,-2,8,-5,-9,-4,-1,-4,0,5452
0.341552,-0.700826,1.80738,3.8125,13.1875,-2.75,0.490723,0.0957031,0.809082,-2,3,1,-6,-3,-4,-2,-1,5469
0.369889,-0.658438,1.78168,5.8125,15.375,-37.5625,0.62207,0.332031,0.955078,-3,-6,-8,9,4,-1,-1,-2,5560
0.378117,-0.646242,1.76739,-4.125,10.75,-36.875,0.670898,0.474121,1.06055,2,1,11,1,-2,-1,-2,-2,5577
0.38543,-0.638392,1.75235,-12.0625,0.1875,-31.3125,0.717773,0.57666,1.08203,-3,1,5,-8,-1,-3,1,0,5594
0.390214,-0.636942,1.7385,-14.5625,-7.5,-28,0.833008,0.505371,1.02441,-2,1,5,-2,1,-1,-3,-2,5611
0.3943,-0.635478,1.7231,-27.6875,-1.375,-28.0625,0.943359,0.648926,0.987305,-2,1,8,5,2,1,-2,-2,5629
0.394341,-0.634889,1.70631,-49.75,0.9375,-24.875,0.989258,0.788574,0.903809,-3,-3,-17,-6,-1,0,2,0,5646
0.394341,-0.634889,1.70631,-49.75,0.9375,-24.875,0.989258,0.788574,0.903809,0,-4,-7,-10,-5,-2,0,-1,5663
0.383877,-0.63446,1.68308,-40.4375,8.125,-20.75,0.912598,0.552246,0.78125,0,-2,-4,-1,1,1,1,-1,5681
0.383877,-0.63446,1.68308,-40.4375,8.125,-20.75,0.912598,0.552246,0.78125,1,-1,-6,-3,-1,-1,1,-2,5697
0.385378,-0.633917,1.67184,-26.5625,8.3125,-21.375,0.849609,0.502441,0.675781,0,-2,-7,-5,-2,-2,-1,-2,5713
0.385356,-0.631949,1.6629,-22.25,11.1875,-22.0625,0.75293,0.378418,0.621094,2,0,-3,0,2,0,1,-1,5731
0.384509,-0.628728,1.65454,-20.0625,13.4375,-23.5625,0.655762,0.290039,0.543457,-4,5,1,-2,-1,-4,-4,-2,5748
0.384509,-0.628728,1.65454,-20.0625,13.4375,-23.5625,0.655762,0.290039,0.543457,1,6,-4,-4,-2,1,-4,-1,5763
0.381347,-0.624484,1.64719,-23.4375,16.5625,-23.375,0.571289,0.219727,0.444336,-1,8,2,6,0,-1,0,-2,5781
0.381347,-0.624484,1.64719,-23.4375,16.5625,-23.375,0.571289,0.219727,0.444336,-2,0,-3,-4,-1,-1,0,1,5799
0.369097,-0.608962,1.63533,-24.25,24.5625,-26.1875,0.348145,0.0654297,0.327148,-2,-2,-2,-3,0,-2,-5,1,5816
0.337643,-0.573513,1.62689,-25,22.0625,-3.5,0.356934,0.157227,0.442383,-5,4,-11,-10,-5,-3,0,-1,5900
0.326758,-0.568123,1.63117,-26.375,21.5,5.375,0.408203,0.213379,0.51123,1,2,-12,0,-1,5,1,0,5918
0.31582,-0.564594,1.63793,-25.0625,16.0625,14.625,0.436523,0.275391,0.619629,-3,-5,-2,7,1,-2,-4,-2,5935
0.305179,-0.566242,1.64811,-20.6875,6.1875,27.5625,0.502441,0.311035,0.673828,-4,-6,-7,-9,-3,-3,-1,-1,5952
0.295736,-0.572844,1.66292,-13,-1.5625,43.625,0.583496,0.368652,0.701172,0,-10,9,4,3,1,-3,1,5970
0.288073,-0.585042,1.68372,0.3125,-7.625,61.25,0.658691,0.368652,0.65332,-2,4,-14,-15,-7,-4,0,0,5986
0.283498,-0.600447,1.70861,18.1875,-11.1875,70.875,0.720703,0.338379,0.641602,-4,2,2,-4,0,-2,-3,0,6003
0.283498,-0.600447,1.70861,18.1875,-11.1875,70.875,0.720703,0.338379,0.641602,1,5,-2,5,1,0,-2,0,6021
0.282112,-0.615915,1.73462,28.9375,-12.375,74.1875,0.73877,0.364746,0.681641,3,-2,0,4,-5,-3,-4,-2,6037
0.2813,-0.632145,1.76286,34,-17.25,81.25,0.767578,0.424316,0.784668,-7,-7,17,7,-2,-2,-3,-2,6054
0.281142,-0.652298,1.7936,43.125,-28.875,89.25,0.766602,0.401367,0.794434,2,0,-15,-4,1,-2,1,-2,6072
0.283361,-0.676068,1.82661,69.125,-35.6875,84,0.778809,0.120117,0.731445,-1,7,9,-1,2,1,4,-1,6089
0.291481,-0.694885,1.85678,86.125,-22.4375,69.1875,0.849121,0.0678711,0.75293,2,-1,-5,3,-3,-12,-2,0,6106
0.301091,-0.707412,1.88003,64.5,-9.8125,61.25,0.944336,0.371094,0.841797,-2,-19,1,-6,-2,7,-3,-2,6123
0.301091,-0.707412,1.88003,64.5,-9.8125,61.25,0.944336,0.371094,0.841797,-3,9,2,-6,-5,5,-18,-3,6140
0.297131,-0.718673,1.90403,27.3125,-9.4375,63.5,1.00391,0.424316,0.969238,0,4,0,-8,1,-3,4,-1,6158
0.294629,-0.782542,2.03337,73.25,-33.875,50.375,0.582031,0.0771484,0.874512,2,-2,-1,2,-2,-10,-4,-3,6248
0.294629,-0.782542,2.03337,73.25,-33.875,50.375,0.582031,0.0771484,0.874512,1,-5,1,0,1,7,0,0,6266
0.297719,-0.789013,2.05244,55,-28.625,40.75,0.388672,0.0927734,0.819824,1,-5,1,0,1,7,0,0,6284
0.293551,-0.792566,2.06991,30.5625,-27.125,37.5625,0.222656,0.0830078,0.763184,5,1,-1,0,1,1,0,2,6301
0.281245,-0.794741,2.08617,7.8125,-25.4375,31.9375,0.121582,0.00146484,0.687988,4,2,2,2,1,6,5,3,6318
0.262702,-0.795271,2.10148,-10.4375,-22.6875,26,0.0229492,-0.0727539,0.618652,-2,1,-2,1,-1,-1,-9,2,6335
0.24399,-0.794372,2.11421,-14.625,-21.0625,18.4375,-0.0634766,-0.133789,0.544434,-7,-4,1,0,-14,-14,-3,-3,6353
0.229144,-0.793498,2.12287,-11.6875,-20.4375,8.0625,-0.120605,-0.189453,0.434082,-1,-2,5,5,9,8,-7,-4,6370
0.216912,-0.789608,2.12467,-15.1875,-15.0625,-8.9375,-0.170898,-0.250488,0.374023,17,-2,-1,-1,55,23,-10,6,6387
0.207005,-0.782369,2.11408,-39.3125,-12,-30.625,-0.229492,-0.15625,0.345703,-1,5,9,2,-47,-15,16,2,6404
0.207005,-0.782369,2.11408,-39.3125,-12,-30.625,-0.229492,-0.15625,0.345703,-45,2,-14,-15,-7,-21,-4,-15,6421
0.191132,-0.772964,2.09171,-85.0625,-9.8125,-49.875,-0.223145,-0.0458984,0.341797,86,-3,2,3,4,1,45,36,6438
0.174645,-0.764621,2.06018,-109.375,6.25,-68.3125,-0.158203,-0.0288086,0.307617,26,-14,14,2,-12,-3,29,-17,6454
0.147899,-0.750407,2.02639,-142.063,22,-76,-0.11377,-0.0390625,0.452148,34,-3,2,-4,-63,-8,-11,10,6471
0.120561,-0.731997,1.99442,-137.125,36.0625,-75.5,0.0830078,-0.133789,0.698242,-7,10,1,-1,-14,-4,12,5,6488
0.120561,-0.731997,1.99442,-137.125,36.0625,-75.5,0.0830078,-0.133789,0.698242,14,9,8,-2,1,7,6,15,6505
0.0953733,-0.638619,1.81187,-102.188,41.75,-78,1.25391,0.514648,1.59521,6,-8,-14,-15,18,-2,13,-2,6607
0.0953733,-0.638619,1.81187,-102.188,41.75,-78,1.25391,0.514648,1.59521,10,-10,-2,8,-11,-29,-15,-12,6624
0.0840565,-0.626282,1.7731,-101.813,27.5625,-89.75,1.12646,0.382813,1.51221,-2,7,11,10,-6,-26,-33,19,6641
0.074781,-0.621276,1.72876,-103.438,6.75,-102.063,0.961426,0.291016,1.30811,1,6,7,3,2,1,-6,-17,6657
0.0669994,-0.624651,1.68076,-103.5,-17.8125,-110.25,0.788086,0.133789,1.1123,-8,-9,0,3,4,-21,-15,-21,6674
0.0599939,-0.634956,1.62785,-109.75,-38.375,-119.625,0.614258,0.105957,0.926758,-38,-8,-3,5,57,35,-14,14,6690
0.0599939,-0.634956,1.62785,-109.75,-38.375,-119.625,0.614258,0.105957,0.926758,18,4,-1,-5,-9,-13,11,15,6707
0.0272373,-0.68042,1.51206,-154.875,-84.9375,-124.688,0.364258,0.0385742,0.573242,5,13,2,5,24,43,18,9,6724
0.0272373,-0.68042,1.51206,-154.875,-84.9375,-124.688,0.364258,0.0385742,0.573242,15,-8,3,-3,-25,-10,8,10,6742
0.00665655,-0.711268,1.45574,-160.5,-90.9375,-124.313,0.395996,-0.155273,0.477051,-9,-16,7,-1,19,-14,8,-21,6759
-0.00894396,-0.740295,1.39528,-156.563,-83,-132.188,0.456543,-0.222168,0.479004,82,11,7,-8,-46,-12,31,-53,6777
-0.0398223,-0.757628,1.32945,-217.313,-46.875,-139.438,0.422363,-0.00927734,0.5,82,11,7,-8,-46,-12,31,-53,6794
-0.0398223,-0.757628,1.32945,-217.313,-46.875,-139.438,0.422363,-0.00927734,0.5,59,-11,-38,-47,76,23,22,91,6811
-0.0859785,-0.770506,1.26243,-266.875,-28.1875,-139.375,0.333496,0.0981445,0.334473,-115,-24,-30,-52,-1,48,65,10,6828
-0.134398,-0.789984,1.19039,-285.688,-39.1875,-150.375,0.532715,0.0463867,0.523926,98,11,43,97,-121,-45,62,-33,6845
-0.223695,-0.795363,1.12297,-394.25,7.875,-136.563,1.09229,-0.239746,1.13721,-80,0,45,74,33,-46,-128,-1,6862
-1.22441,-0.720607,1.48295,-355.875,-186.625,432.438,2.2959,-1.53516,1.18311,97,-13,-5,63,59,41,71,72,6965
-1.22441,-0.720607,1.48295,-355.875,-186.625,432.438,2.2959,-1.53516,1.18311,-83,-22,-28,-98,-86,-128,45,-22,6982
-1.40322,-0.542658,1.63022,-261.688,-201.188,581.313,2.38721,-1.92822,0.693359,-80,-10,-24,-97,-84,-36,-5,-38,6999
-1.47345,-0.309404,1.73185,-80,-176.063,700.5,2.95068,-1.8125,0.389648,87,23,32,-45,-87,9,-106,-108,7017
-1.4174,-0.0512326,1.78401,187.5,-54.125,756.875,3.31982,-1.51416,0.534668,-35,-5,-48,34,66,54,-2,-59,7033
-1.29001,0.221442,1.76499,369.813,223,757.5,3.33838,0.0820313,0.0146484,58,26,78,121,126,49,59,95,7051
-1.29001,0.221442,1.76499,369.813,223,757.5,3.33838,0.0820313,0.0146484,-107,-22,-111,-88,44,-1,-27,-8,7069
-1.1652,0.51163,1.69084,435.188,471.625,723,2.68604,1.24365,-0.779297,15,-6,-44,-14,-70,-52,-66,-37,7086
-1.07503,0.806593,1.57488,465.688,611.75,651.875,1.39648,1.10547,-1.37207,73,19,29,57,-4,0,22,81,7105
-1.07503,0.806593,1.57488,465.688,611.75,651.875,1.39648,1.10547,-1.37207,-8,-18,-16,-8,25,-45,121,51,7121
-1.19753,1.25432,1.1663,252.563,461.688,346.25,-0.56543,0.441895,-0.881836,2,-5,-5,-30,19,72,-66,-8,7138
-1.46288,1.32038,0.877199,39.625,259.563,120.438,0.0571289,0.331055,-0.586914,23,3,20,22,-12,-32,-49,10,7155
-1.46288,1.32038,0.877199,39.625,259.563,120.438,0.0571289,0.331055,-0.586914,21,1,-15,-29,-19,-9,-8,26,7172
-1.69686,1.32553,0.669184,-79.375,95.0625,-25.25,0.51709,0.76123,-0.748535,-34,3,17,12,40,17,-4,-87,7189
-1.74275,1.28398,0.692756,-193.125,-16.875,-130.125,0.606934,0.832031,-0.961426,-65,-4,52,98,75,127,40,-65,7206
-1.77513,1.24492,0.74809,-237.688,-43.375,-127.563,0.516602,0.749023,-0.989746,5,-6,-84,-91,-58,-86,-44,-46,7223
-1.90266,1.17512,0.813754,-28.5,26.75,54.125,0.320313,-0.48584,-0.0703125,-7,-11,-12,9,-8,56,23,16,7327
-1.85257,1.19141,0.687004,326.813,55.25,48,-0.837891,-1.11035,-0.749023,-2,-7,0,-7,-55,26,37,-4,7345
-1.85257,1.19141,0.687004,326.813,55.25,48,-0.837891,-1.11035,-0.749023,15,12,7,3,29,35,13,7,7363
-1.70563,1.18177,0.679044,151.625,-40.625,-65.4375,-1.1665,0.748535,-0.92041,15,12,7,3,29,35,13,7,7382
-1.65242,1.16375,0.722942,40.375,-45.1875,-92.25,-1.05908,0.0854492,-0.0795898,13,-13,-1,3,-23,-32,6,9,7399
-1.5882,1.13611,0.790749,0.625,-63.8125,-92.4375,-1.4292,-0.513672,0.168457,6,1,-4,2,0,119,11,-7,7416
-1.5882,1.13611,0.790749,0.625,-63.8125,-92.4375,-1.4292,-0.513672,0.168457,-1,-2,-5,-2,-38,-9,-1,-1,7433
-1.43407,1.04165,0.949131,38.4375,-126.125,-130.5,-0.900879,-0.298828,0.338867,1,-8,-2,-6,25,6,12,-4,7450
-1.43407,1.04165,0.949131,38.4375,-126.125,-130.5,-0.900879,-0.298828,0.338867,-2,-24,-9,-11,0,7,9,0,7467
-1.31109,0.993084,1.05105,100.938,-172.625,-108.75,-0.723633,-0.306641,0.466797,0,1,2,2,5,13,3,3,7484
-1.1578,0.941526,1.13995,224,-178.875,-95.25,-0.46582,-0.0419922,0.584473,-2,11,-5,-1,6,-3,9,6,7501
-0.993235,0.886368,1.22265,277.125,-196.938,-76.6875,-0.508301,0.149414,0.630859,0,-20,4,2,-11,-11,16,1,7518
-0.839302,0.815976,1.30467,257.75,-241.938,-72.5625,-0.570801,0.145996,0.65918,-1,0,-7,-8,7,-2,1,4,7535
-0.68449,0.731362,1.37757,291.25,-272.063,-61.25,-0.0268555,0.15625,0.606934,-2,9,0,3,-12,-15,-41,-12,7552
-0.68449,0.731362,1.37757,291.25,-272.063,-61.25,-0.0268555,0.15625,0.606934,4,-5,3,-2,-10,-5,2,3,7568
-0.380423,0.557437,1.51836,295.25,-283.688,33.9375,0.473633,0.301758,0.70166,4,-14,5,6,14,-7,-2,12,7586
-0.048365,0.333901,1.68858,218.75,-184.938,139.5,0.42334,0.0864258,0.94043,-12,3,-14,-36,-17,0,-23,-18,7664
0.0405081,0.282114,1.74785,198.125,-137.5,159.875,0.339844,0.33252,1.2666,3,12,-2,0,21,9,10,4,7681
0.124772,0.223233,1.79829,202.813,-144.688,151.813,0.305664,0.355469,1.79736,-2,9,25,16,-21,-22,-10,1,7698
0.212954,0.159501,1.83452,233.25,-163.125,131.188,0.292969,0.58252,2.49512,3,-10,-24,-2,-10,-1,10,1,7715
0.212954,0.159501,1.83452,233.25,-163.125,131.188,0.292969,0.58252,2.49512,-5,-5,21,41,-9,-4,18,4,7732
0.302343,0.0785035,1.86383,246,-203.563,140,0.392578,0.708008,2.63477,-12,-5,1,30,9,1,9,0,7750
0.38917,-0.00551081,1.88728,246.375,-204,145.125,0.404785,0.937988,2.80615,-3,3,3,18,15,4,1,4,7767
0.454899,-0.0963858,1.90782,191.438,-213.688,160.438,0.45166,1.27148,2.77783,3,5,2,-23,-15,0,-2,-7,7784
0.454899,-0.0963858,1.90782,191.438,-213.688,160.438,0.45166,1.27148,2.77783,-6,-8,-13,-16,-23,-12,1,-3,7801
0.510809,-0.264487,1.91949,59.75,-195.25,108.813,0.654297,0.699219,2.31641,2,-4,0,-5,-18,-22,-3,-4,7818
0.532533,-0.334978,1.91021,60.25,-192.938,79.5625,0.450684,0.794922,2.03857,-2,9,7,0,3,6,-7,-3,7835
0.56118,-0.400467,1.90266,75.1875,-179.938,85.5625,0.172852,0.96582,1.65479,0,2,-1,5,16,10,12,1,7852
0.56118,-0.400467,1.90266,75.1875,-179.938,85.5625,0.172852,0.96582,1.65479,6,1,-4,1,20,3,3,-1,7869
0.583564,-0.462219,1.90483,66.125,-157.875,108.563,-0.140625,0.931152,1.33203,3,2,-4,-7,-7,-2,17,-5,7886
0.597564,-0.520267,1.91447,53.8125,-138.313,121.188,-0.36377,0.633301,1.05225,-21,-3,4,-3,-3,8,-31,-3,7903
0.60403,-0.569806,1.93007,44.3125,-107.25,118.5,-0.381836,0.352539,0.788574,-16,6,-2,-2,0,4,-20,2,7920
0.597419,-0.581957,2.01686,2.25,26.625,14.125,-0.94043,-0.181641,0.0952148,3,-9,-1,-1,-9,-4,30,5,8011
0.571085,-0.5417,2.02469,-51.0625,56,-23.75,-0.907715,-0.13623,0.179199,-2,-14,-11,13,2,-13,8,3,8028
0.571085,-0.5417,2.02469,-51.0625,56,-23.75,-0.907715,-0.13623,0.179199,-21,8,32,51,16,4,14,6,8045
0.53702,-0.489129,2.02519,-78.9375,70.8125,-54.1875,-0.899414,-0.137695,0.351074,-8,3,-4,24,-7,-1,1,2,8062
0.516221,-0.427449,2.0126,-57.3125,80.3125,-94.375,-0.692383,0.0170898,0.644531,-8,3,-4,24,-7,-1,1,2,8079
0.533808,-0.370728,1.98449,18.75,89.4375,-137.625,-0.421387,0.768066,1.27246,-11,-6,-79,-52,-24,0,0,-5,8096
0.533808,-0.370728,1.98449,18.75,89.4375,-137.625,-0.421387,0.768066,1.27246,20,-9,-33,3,8,-1,-34,6,8112
0.54235,-0.319568,1.95557,-3.8125,85.6875,-142.25,-0.00292969,1.98389,1.99902,-18,10,12,17,5,0,-10,-4,8130
0.501334,-0.258029,1.93142,-137.25,119.875,-145.25,0.934082,1.54053,2.29834,7,6,23,-39,-11,0,11,-1,8147
0.447569,-0.177575,1.91016,-167.313,178.063,-158.75,0.921387,1.54346,2.57373,22,-5,28,1,4,-1,-3,2,8164
0.413115,-0.0920488,1.87516,-112.313,181.375,-192.563,0.887695,1.51807,2.479,3,-4,2,-1,0,0,-2,-4,8181
0.380733,-0.0101715,1.84018,-97.5625,177.813,-182.875,0.983398,1.65869,2.02539,-1,-11,10,-18,8,-4,-3,0,8199
0.339851,0.0655992,1.80452,-114.625,167.063,-172.688,0.877441,1.3374,1.69336,4,1,0,-11,3,-3,0,-3,8215
0.339851,0.0655992,1.80452,-114.625,167.063,-172.688,0.877441,1.3374,1.69336,7,6,2,-7,-1,-1,2,-4,8232
0.300566,0.129032,1.77081,-113.188,156.625,-154.188,0.682129,1.02686,1.30273,-2,-6,4,-7,9,5,6,-3,8250
0.263019,0.18337,1.74004,-101,138.375,-132.125,0.610352,0.710938,0.939941,-5,-17,0,2,7,2,1,-5,8267
0.199177,0.264342,1.65357,-44.375,52.75,-84.0625,0.544434,0.489746,0.0854492,-6,-3,-4,-6,-8,-4,-16,-1,8326
0.187147,0.269327,1.63686,-48.4375,36.1875,-61.5,0.478027,0.404785,-0.019043,-10,3,15,1,-12,-5,2,1,8343
0.172775,0.265811,1.6237,-47.8125,10.5,-43.75,0.459473,0.23291,-0.161621,-2,-5,0,3,-2,-2,9,3,8360
0.165535,0.254638,1.6149,-17.375,-5.75,-24.4375,0.525879,0.00585938,-0.256836,16,-3,8,15,9,-3,-36,0,8377
0.166431,0.242315,1.61055,1.75,3,-13.8125,0.694336,0.00390625,-0.333496,-3,-14,-6,-12,2,-1,-7,-1,8394
0.166431,0.242315,1.61055,1.75,3,-13.8125,0.694336,0.00390625,-0.333496,1,13,8,18,9,4,-3,4,8411
0.170644,0.238952,1.61372,-12.1875,26.875,-0.9375,0.603516,0.290039,-0.280273,-6,9,-7,-13,2,1,10,0,8429
0.168635,0.231138,1.62762,-35.5,16.625,31.125,0.545898,0.274414,-0.196777,7,3,-5,3,2,-3,1,-2,8446
0.168635,0.231138,1.62762,-35.5,16.625,31.125,0.545898,0.274414,-0.196777,2,9,13,-5,-4,-3,-1,0,8463
0.169332,0.187597,1.66752,-6,-24.75,61.4375,0.569336,0.0820313,-0.00878906,3,6,54,32,27,-4,-8,2,8480
0.169332,0.187597,1.66752,-6,-24.75,61.4375,0.569336,0.0820313,-0.00878906,11,10,7,14,21,-1,-10,-3,8498
0.215818,0.101488,1.73352,56.625,-115.188,133.25,0.240234,1.02344,1.31201,-15,8,-54,-21,19,1,-4,-9,8515
0.215818,0.101488,1.73352,56.625,-115.188,133.25,0.240234,1.02344,1.31201,-3,-14,-46,-8,-16,-1,-13,8,8532
0.215818,0.101488,1.73352,56.625,-115.188,133.25,0.240234,1.02344,1.31201,27,5,63,-3,-10,4,9,4,8550
0.295422,-0.0767233,1.81013,126.938,-226.188,169,0.841797,0.913086,2.32129,8,-6,16,-16,17,4,-6,-3,8568
0.349164,-0.170356,1.83701,163.438,-230.688,157.875,0.858398,1.14258,2.34521,-6,5,-18,-2,-10,-1,26,-5,8585
0.502768,-0.508601,1.88707,80.1875,-141.75,104.188,-0.243652,0.537109,1.24463,21,-11,-3,-3,-6,-13,-7,6,8693
0.520092,-0.557019,1.89857,68.5625,-120,98.25,-0.303711,0.38623,1.00537,21,-11,-3,-3,-6,-13,-7,6,8709
0.533735,-0.597957,1.91124,61.6875,-100.313,91.125,-0.525391,0.252441,0.796875,0,5,-10,-7,5,-7,-35,-2,8726
0.541043,-0.620571,1.93387,77.25,-87.0625,98,-0.701172,-0.0131836,0.621582,16,8,-2,-3,-2,-2,-27,-1,8743
0.54325,-0.638441,1.96039,71.1875,-53.9375,87.25,-0.612305,-0.21875,0.321777,-14,-4,-8,-5,0,-3,-20,-6,8760
0.534068,-0.636334,1.98247,29.625,-8.375,48.75,-0.615234,-0.221191,0.267578,-3,-10,-5,-2,-6,-10,0,-2,8777
0.511026,-0.616029,1.99948,-16.125,25.9375,12.875,-0.712891,-0.30127,0.241699,-6,4,-8,-6,-8,-10,8,-5,8794
0.486811,-0.581498,2.00919,-27.875,52,-22.75,-0.778809,-0.427734,0.178223,-9,-1,-4,-1,5,-2,2,-2,8811
0.486811,-0.581498,2.00919,-27.875,52,-22.75,-0.778809,-0.427734,0.178223,-4,-5,-11,-8,-10,-2,-5,-4,8828
0.468828,-0.532798,2.0061,-32.9375,72.5,-62.4375,-0.803711,-0.366699,0.165527,-4,-5,-11,-8,-10,-2,-5,-4,8844
0.457755,-0.473654,1.98913,-41.5625,79.0625,-95.1875,-0.813477,-0.120605,0.282715,17,-17,20,27,16,7,3,-2,8862
0.450361,-0.423842,1.96307,-51.0625,85.375,-118.375,-0.683594,0.0493164,0.513184,3,8,8,14,1,0,9,21,8879
0.450361,-0.423842,1.96307,-51.0625,85.375,-118.375,-0.683594,0.0493164,0.513184,-19,2,14,-19,-9,0,31,-5,8896
0.431893,-0.295402,1.89783,-67.3125,131,-170.563,-0.228516,1.8252,2.1665,-10,9,20,59,12,-1,-31,2,8913
0.408793,-0.235527,1.8524,-100.5,105.063,-184.75,0.373047,1.73682,2.66895,-17,-3,-27,-35,-9,-11,-20,-6,8930
0.408793,-0.235527,1.8524,-100.5,105.063,-184.75,0.373047,1.73682,2.66895,3,-2,-14,-15,-8,-6,-3,0,8947
0.265907,0.0248597,1.65737,-109.875,126.25,-191.625,0.590332,1.29639,1.71777,6,0,3,5,7,8,4,-2,9024
0.226203,0.0730522,1.61494,-121.125,116.938,-155.625,0.626953,1.11523,1.38428,7,-7,-3,-5,-1,6,-21,-2,9042
0.190454,0.111078,1.57966,-102.5,98.1875,-124.563,0.622559,0.753418,0.983398,0,1,1,-2,-4,-12,-3,-2,9059
0.167895,0.141316,1.54727,-58.4375,80.6875,-108.938,0.617188,0.437012,0.539063,4,4,-5,-4,-13,1,11,0,9076
0.162798,0.156144,1.51927,-28.75,67.875,-95.875,0.543945,0.423828,0.200684,-2,2,-2,2,6,-9,9,0,9093
0.162798,0.156144,1.51927,-28.75,67.875,-95.875,0.543945,0.423828,0.200684,-4,-8,-3,2,6,-5,9,1,9110
0.161561,0.167592,1.49825,-20.3125,57.0625,-73.8125,0.521484,0.390137,-0.0678711,-4,-8,-3,2,6,-5,9,1,9127
0.161561,0.167592,1.49825,-20.3125,57.0625,-73.8125,0.521484,0.390137,-0.0678711,-2,-5,-1,1,2,15,-14,0,9143
0.157215,0.175653,1.4847,-26.4375,51.0625,-50.625,0.561035,0.276367,-0.240723,-9,4,0,0,-2,-14,-16,-3,9160
0.153655,0.178902,1.48514,-11.625,33.4375,7.0625,0.625488,0.106934,-0.51709,-3,4,-1,-1,7,8,-3,-3,9177
0.161007,0.171995,1.49419,6.8125,27,19.4375,0.741699,0.0556641,-0.53418,-3,4,-1,-1,7,8,-3,-3,9194
0.161007,0.171995,1.49419,6.8125,27,19.4375,0.741699,0.0556641,-0.53418,-3,-3,-8,-6,-6,-13,-3,-1,9211
0.192987,0.14268,1.53087,3.8125,-0.75,65.3125,0.661133,0.569336,-0.155762,-9,-9,-13,1,0,0,-4,1,9228
0.192987,0.14268,1.53087,3.8125,-0.75,65.3125,0.661133,0.569336,-0.155762,-15,-15,-2,10,8,10,9,0,9245
0.205565,0.116471,1.56969,14,-40.4375,119.688,0.685547,0.451172,0.0488281,1,6,-26,-19,-9,-4,-14,-5,9263
0.240712,0.02966,1.66676,39.8125,-89.5,166.938,0.73291,1.10889,1.30859,-12,1,-25,-9,-20,-12,-2,-2,9281
0.42975,-0.298834,1.86334,148.625,-172.563,189.063,0.78125,1.0332,2.20654,-3,0,-6,-15,-17,6,6,-4,9366
0.42975,-0.298834,1.86334,148.625,-172.563,189.063,0.78125,1.0332,2.20654,12,-1,-4,3,12,17,11,-3,9383
0.449169,-0.360898,1.89134,80.4375,-134,147.688,0.484863,1.08301,2.01953,14,-1,-7,-7,-2,-14,5,3,9400
0.455169,-0.413845,1.91465,41.3125,-123.438,129.188,-0.115234,0.938477,1.76563,-6,2,-1,-11,7,5,-24,-3,9417
0.464475,-0.461119,1.93716,52.875,-110,120,-0.248047,0.773438,1.375,-7,-5,-10,-9,-10,-8,6,1,9434
0.467823,-0.502238,1.95716,36,-94.5625,104.063,-0.265137,0.525879,1.02148,-16,-4,3,2,15,19,-14,0,9452
0.467262,-0.523359,1.97332,26.4375,-81.9375,83.3125,-0.342285,0.310547,0.796387,10,-11,3,2,17,12,1,-1,9469
0.468634,-0.541004,1.98618,29.4375,-78.375,70.875,-0.499023,0.175293,0.591309,27,0,-6,-4,-15,-7,-19,0,9486
0.468634,-0.541004,1.98618,29.4375,-78.375,70.875,-0.499023,0.175293,0.591309,6,1,-4,-4,-3,-4,-20,0,9503
0.469768,-0.557134,2.00103,37.375,-72.25,68.5,-0.638184,-0.0219727,0.396484,-19,-8,7,10,12,9,-25,-2,9520
0.470284,-0.568729,2.01404,38.1875,-58,53.3125,-0.67334,-0.20752,0.220215,-12,-4,-11,-8,6,-2,-3,-1,9536
0.46556,-0.566723,2.02288,18.9375,-25.375,22.6875,-0.708496,-0.319336,0.107422,-2,-8,-3,-7,-36,-7,5,3,9554
0.450997,-0.548781,2.02481,-19.375,2.375,-8.9375,-0.812012,-0.325195,0.0893555,-8,-3,-10,-3,-1,8,6,-2,9572
0.433173,-0.519764,2.01873,-36.75,18.8125,-40.8125,-0.841309,-0.370117,0.146484,-1,5,-4,-4,-6,-6,12,0,9589
0.418914,-0.480819,2.00388,-40.625,34.4375,-69,-0.802734,-0.286133,0.222168,-9,-3,-11,-9,0,-6,3,3,9606
0.418914,-0.480819,2.00388,-40.625,34.4375,-69,-0.802734,-0.286133,0.222168,8,1,26,3,-3,-1,-7,-2,9623
0.40553,-0.291399,1.88436,-24.6875,94.375,-137.938,-0.106445,1.87695,2.18213,-15,-15,-20,-26,-15,1,1,-2,9692
0.395435,-0.246616,1.84577,-58.25,76.4375,-148.188,0.904785,1.86816,2.6582,0,10,-30,35,23,7,-24,-1,9709
0.363571,-0.198645,1.81607,-110.25,96.9375,-128,1.46875,1.96143,2.38916,6,4,-15,-55,-3,5,-23,-6,9727
0.363571,-0.198645,1.81607,-110.25,96.9375,-128,1.46875,1.96143,2.38916,3,-1,7,-2,-4,16,17,-6,9744
0.332471,-0.14062,1.77161,-110.438,113.563,-174.813,1.32861,1.38281,2.04346,0,-1,6,2,2,-10,17,-7,9762
0.299403,-0.0759895,1.7289,-108.125,138.188,-173.5,0.960449,1.44189,1.76221,8,-4,-5,-6,6,9,7,-3,9780
0.264187,-0.0218819,1.69148,-120.688,133.25,-149.5,0.844238,1.26123,1.4082,4,-7,10,-4,2,-1,-19,-1,9796
0.231702,0.0251512,1.65741,-104.625,118.063,-130.438,0.644043,0.953613,1.0542,0,8,2,-2,-1,-3,-14,3,9814
0.206555,0.0615849,1.62602,-76.75,93.0625,-113.25,0.577148,0.65918,0.70752,-3,2,-8,-6,1,8,8,2,9831
0.197184,0.0784715,1.59876,-49.3125,70.125,-96.1875,0.526855,0.499512,0.416504,1,7,3,3,-1,3,18,-3,9847
0.197184,0.0784715,1.59876,-49.3125,70.125,-96.1875,0.526855,0.499512,0.416504,-4,-4,0,1,1,2,-1,-1,9864
0.191203,0.0895843,1.5775,-35.375,51.5625,-73.9375,0.45752,0.383301,0.150391,-5,3,-3,-5,-5,-3,14,-2,9882
0.183871,0.0955173,1.56297,-34.3125,38.8125,-51.125,0.451172,0.241699,-0.090332,-3,3,0,-1,-2,3,-6,0,9899
0.173537,0.098308,1.55387,-38.875,34.4375,-33.6875,0.491211,0.12793,-0.282227,-5,0,-1,-3,5,-2,1,-2,9917
0.164578,0.0965566,1.54955,-32,26,-17.875,0.538086,0.0483398,-0.385742,-1,1,-1,-3,-4,-4,-17,-1,9933
0.164578,0.0965566,1.54955,-32,26,-17.875,0.538086,0.0483398,-0.385742,1,1,3,0,1,6,5,-4,9950
0.199421,-0.0139051,1.62832,0.625,-52.125,114.688,0.828125,0.393066,0.13623,5,3,32,38,15,4,8,2,10040
0.20541,-0.0545505,1.67097,13,-77.9375,140.563,0.742676,0.66748,0.905762,-10,-9,-24,2,2,1,-5,-6,10058
0.20541,-0.0545505,1.67097,13,-77.9375,140.563,0.742676,0.66748,0.905762,6,1,51,-22,-28,-22,-17,-1,10075
0.266209,-0.189264,1.77364,129.5,-175.563,197.438,0.815918,1.0249,2.18848,0,-2,-8,7,-6,9,0,6,10091
0.314495,-0.263607,1.82568,172,-162.875,200.375,1.00586,1.32959,2.46436,4,2,1,16,6,2,-6,1,10108
0.314495,-0.263607,1.82568,172,-162.875,200.375,1.00586,1.32959,2.46436,0,-1,-46,13,-4,-1,8,-3,10126
0.374003,-0.394169,1.8949,107.813,-127.875,134.563,0.789063,0.90625,2.12793,10,6,-37,14,5,14,-17,-8,10143
0.374003,-0.394169,1.8949,107.813,-127.875,134.563,0.789063,0.90625,2.12793,3,-8,-66,13,-2,4,13,1,10160
0.393517,-0.438477,1.91421,74.0625,-108.188,99.8125,0.325195,1.05664,1.8623,4,2,27,37,0,-13,1,-1,10176
0.405665,-0.480011,1.93119,54.6875,-108.25,94.5625,-0.229492,0.813965,1.54541,-9,-12,51,-8,-17,-4,7,0,10193
0.41606,-0.500149,1.95148,51.5,-93.6875,99.625,-0.419434,0.592773,1.10449,5,5,28,-3,-5,-14,-4,1,10211
0.423188,-0.518774,1.97365,52.875,-77.3125,94,-0.455078,0.31543,0.749023,6,3,9,-21,6,6,16,0,10227
0.423188,-0.518774,1.97365,52.875,-77.3125,94,-0.455078,0.31543,0.749023,11,-3,0,-14,-6,1,-24,1,10244
0.429741,-0.530796,1.993,54.3125,-55.4375,72.9375,-0.455566,0.120605,0.551758,5,-5,34,0,3,2,-33,0,10261
0.436561,-0.53433,2.00941,52.125,-33.5,54.375,-0.491211,0.0380859,0.425293,-13,5,-2,-7,-5,2,3,-6,10278
0.437324,-0.530691,2.02478,37.0625,-18.5625,42.375,-0.609863,-0.0771484,0.324707,-9,9,0,-3,-2,4,-3,2,10295
0.402818,-0.433665,2.03533,-30.125,41.0625,-63.9375,-0.904297,-0.367188,0.25,17,4,4,7,2,-7,4,7,10379
0.39193,-0.382483,2.01471,-35.1875,52.4375,-90.125,-0.840332,-0.154785,0.466797,-4,2,-14,-29,-6,-9,-6,-3,10396
0.390669,-0.342495,1.98365,-33.375,61.1875,-115.813,-0.622559,0.125488,0.623535,10,-1,29,-10,-13,-6,3,-3,10414
0.389,-0.291462,1.94564,-40.9375,83.625,-145.813,-0.421875,0.628418,1.19629,-5,-2,19,-9,-22,-20,-6,-3,10431
0.389,-0.291462,1.94564,-40.9375,83.625,-145.813,-0.421875,0.628418,1.19629,-17,-7,-13,43,9,-2,17,4,10449
0.381046,-0.182944,1.86132,-50.0625,97.3125,-174.688,0.676758,2.08496,2.65527,-14,-16,28,40,22,9,-43,2,10466
0.381046,-0.182944,1.86132,-50.0625,97.3125,-174.688,0.676758,2.08496,2.65527,1,4,-16,-19,-14,-14,11,-1,10484
0.353199,-0.125147,1.82169,-96.9375,114.188,-164.438,1.14844,2.28125,2.54639,2,8,5,14,1,-9,21,6,10501
0.317128,-0.0691171,1.78085,-114.813,113.563,-162.813,1.29102,1.8042,1.97559,8,4,23,-4,-3,11,15,-5,10518
0.273936,-0.0104991,1.74439,-128,130.25,-148.875,0.983398,1.39551,1.5415,1,-6,-5,-5,3,7,-2,-1,10535
0.235682,0.0400331,1.71252,-120.5,130.063,-128.625,0.719727,1.03857,1.24756,-2,-5,-4,-4,-2,-33,7,-5,10552
0.235682,0.0400331,1.71252,-120.5,130.063,-128.625,0.719727,1.03857,1.24756,-2,-1,-15,-3,3,-6,-4,0,10569
0.200875,0.0834355,1.68045,-103.063,112.375,-119.563,0.55127,0.733887,0.974609,1,-8,5,3,-1,3,-14,-3,10587
0.171149,0.115272,1.65122,-84.375,85.5,-101.688,0.566406,0.581543,0.722656,-6,8,-2,-5,-9,-4,4,1,10604
0.159174,0.121829,1.63037,-56.75,55.25,-72.9375,0.630859,0.501465,0.395508,-4,7,-3,2,1,7,28,-1,10620
0.149012,0.122374,1.61341,-44.75,34,-56.875,0.577148,0.338379,0.0957031,-5,7,-5,1,-1,6,7,0,10637
0.141913,0.0695446,1.59224,16.625,0.5,17.125,0.818848,0.16748,-0.394531,-3,-8,-5,-8,-6,-2,-3,-4,10735
0.157518,0.0480584,1.60724,10.6875,-3.875,42.125,0.76416,0.431152,-0.202148,-1,-1,-3,-1,-2,-3,2,2,10752
0.172259,0.0190473,1.63444,6.1875,-21.1875,81,0.71582,0.470215,-0.0488281,0,4,3,2,7,0,-1,0,10769
0.172259,0.0190473,1.63444,6.1875,-21.1875,81,0.71582,0.470215,-0.0488281,12,6,28,2,-20,-8,-2,4,10786
0.176956,-0.00912213,1.66776,8.1875,-49.4375,106.063,0.803223,0.311523,0.238281,9,-2,-3,-35,0,2,11,1,10804
0.184975,-0.0395397,1.70377,19.75,-53.625,114.688,0.845703,0.476563,0.770996,-14,10,41,1,2,-10,-13,6,10821
0.205923,-0.0729637,1.7454,66.75,-70.75,135.438,0.847168,1.36621,1.73633,-15,-12,8,-21,3,-3,-9,-3,10838
0.231686,-0.136527,1.79725,89.1875,-145.813,183.813,0.687012,1.40088,2.24805,21,-1,-23,17,8,21,-1,2,10854
0.231686,-0.136527,1.79725,89.1875,-145.813,183.813,0.687012,1.40088,2.24805,-5,4,12,-10,-9,1,6,-7,10872
0.269455,-0.210769,1.85535,136.938,-165.625,211.625,0.959961,0.98291,2.49365,2,-14,7,10,-3,4,9,0,10889
0.302642,-0.283923,1.8972,124.5,-168.188,170.563,0.820313,1.22852,2.3042,-22,4,1,9,-1,6,6,-1,10907
0.325629,-0.347848,1.93422,94.8125,-145.188,154.875,0.632324,0.923828,1.96045,7,-6,11,9,3,4,9,-2,10923
0.335245,-0.401533,1.96584,55.375,-125.063,133.75,0.339355,0.940918,1.7207,6,-8,-15,-4,-4,4,25,1,10940
0.340201,-0.448251,1.99194,39.875,-116.313,115.563,-0.105469,0.87793,1.46191,-11,-6,-6,2,13,2,0,-4,10957
0.341874,-0.48937,2.02067,37.4375,-100.875,116.625,-0.375977,0.727051,1.12793,-23,6,-3,2,6,4,12,2,10974
0.338997,-0.525605,2.04997,29.25,-86.5,109.875,-0.383789,0.520996,0.833496,3,-4,-3,-3,-1,-1,-24,0,10990
0.339477,-0.559209,2.12947,59.875,-47.75,80.0625,-0.698242,-0.117676,0.282715,-8,-4,-6,-6,-4,-6,-8,-1,11051
0.338755,-0.557642,2.15248,48.4375,-17.25,55.125,-0.607422,-0.211914,0.189453,11,-9,0,1,-5,-9,-16,-2,11068
0.338755,-0.557642,2.15248,48.4375,-17.25,55.125,-0.607422,-0.211914,0.189453,4,7,5,8,-5,-6,8,-1,11085
0.331078,-0.539403,2.16579,14.5,13.5625,19.0625,-0.741211,-0.240723,0.152832,-7,4,-1,-4,0,-1,6,-3,11103
0.319083,-0.507332,2.16902,-7.125,34.375,-17.0625,-0.888672,-0.353027,0.152832,-2,2,5,5,-6,-2,7,0,11120
0.309287,-0.464587,2.1608,-13.6875,51.0625,-52.625,-0.902832,-0.384766,0.20166,-8,-3,-14,-15,-9,-4,10,-6,11137
0.309287,-0.464587,2.1608,-13.6875,51.0625,-52.625,-0.902832,-0.384766,0.20166,4,-5,-27,-2,-28,-10,-2,-5,11154
0.311027,-0.369666,2.10708,-18.0625,75.75,-117.063,-0.681641,0.0625,0.506348,-25,-2,-3,-18,6,-6,-4,-3,11172
0.317876,-0.321281,2.06678,-20.8125,85.4375,-141.813,-0.495605,0.380859,0.975098,-5,10,-46,-24,-9,-3,0,-2,11189
0.317876,-0.321281,2.06678,-20.8125,85.4375,-141.813,-0.495605,0.380859,0.975098,-5,2,8,-27,1,-2,-2,0,11206
0.328617,-0.271109,2.02335,-5.8125,98.375,-158.563,-0.266602,1.53857,1.99854,-22,-9,-33,-32,-5,0,-29,-2,11224
0.322739,-0.226107,1.9736,-51.875,77.9375,-172.188,0.494141,1.896,2.42578,3,-1,-11,15,-7,2,-30,1,11241
0.292022,-0.167544,1.92576,-114.813,119.25,-178.875,1.16064,1.99414,2.79785,20,-4,-24,3,3,3,-14,-2,11258
0.256648,-0.114214,1.87565,-121.313,108.688,-178.313,1.19922,1.90967,2.39014,0,-3,2,12,-2,-7,8,3,11276
0.256648,-0.114214,1.87565,-121.313,108.688,-178.313,1.19922,1.90967,2.39014,2,3,-8,-8,-10,-7,6,-4,11292
0.226153,-0.0587626,1.82632,-99.75,120.375,-174.938,1.20947,1.51904,1.97607,7,4,14,-3,-22,-8,-7,0,11309
0.119373,0.0830788,1.66145,-61.625,63.1875,-109.438,0.591309,0.524902,0.517578,-2,5,-4,-2,-7,-12,-17,3,11406
0.10239,0.0870118,1.61119,-34.8125,25.4375,-66.25,0.503418,0.280273,-0.0258789,-2,4,-2,1,4,1,6,0,11423
0.0985631,0.0808325,1.59727,-17.5,15.875,-42.25,0.578125,0.12207,-0.303711,-3,2,-4,1,-2,1,7,-3,11440
0.0996105,0.0700584,1.58751,-1.3125,11.125,-29.6875,0.693848,0.046875,-0.482422,-3,-6,-5,-3,-2,-1,2,0,11457
0.10435,0.0543418,1.58313,5,5.6875,-13.8125,0.79834,0.0844727,-0.549805,-3,-4,-1,-1,0,2,-3,0,11475
0.10435,0.0543418,1.58313,5,5.6875,-13.8125,0.79834,0.0844727,-0.549805,3,-2,-3,0,2,0,-11,-2,11492
0.122952,0.0106129,1.59245,-0.6875,-9.375,24.4375,0.785645,0.356445,-0.373535,-1,-1,-3,-4,-5,3,12,2,11509
0.122952,0.0106129,1.59245,-0.6875,-9.375,24.4375,0.785645,0.356445,-0.373535,-2,0,-6,-8,-9,-9,24,4,11526
0.131791,-0.0192861,1.61404,-3.5,-32.1875,66.6875,0.65918,0.393066,-0.224609,9,11,8,12,2,-5,10,-1,11542
0.131825,-0.0533596,1.6473,0.375,-73.125,106,0.658203,0.158203,-0.0288086,4,4,4,-2,-2,5,-8,-2,11559
0.128202,-0.0944236,1.68226,-4.0625,-92.5,113,0.685059,0.101563,0.302734,-19,-5,-32,-16,2,-15,1,-6,11576
0.13169,-0.140138,1.71858,12.5,-110.375,119.625,0.575684,0.741699,1.34863,27,16,-7,6,-12,-19,-7,-2,11593
0.13169,-0.140138,1.71858,12.5,-110.375,119.625,0.575684,0.741699,1.34863,-12,-11,29,22,-3,4,-17,-1,11609
0.143782,-0.216203,1.76633,58.5625,-197.5,163.5,0.533691,1.74268,2.16455,-12,-11,29,22,-3,4,-17,-1,11626
0.16379,-0.305311,1.82737,102.5,-226.625,206.188,1.34766,0.790039,2.55371,6,-5,-8,26,11,5,4,0,11643
0.19356,-0.378205,1.88196,137.75,-179.5,182.188,1.4624,1.17725,2.53711,-12,-8,-39,2,-14,-14,10,-2,11659
0.2657,-0.484623,1.95369,32.8125,-68.8125,77.1875,0.318848,0.87207,1.55859,3,-3,3,2,6,-4,21,0,11727
0.275782,-0.497503,1.97674,45,-65.6875,87.1875,-0.012207,0.627441,1.30811,9,-3,-9,-11,8,8,-10,-2,11744
0.289257,-0.51015,2.00336,60.8125,-68.4375,97.8125,-0.242188,0.584961,1.0918,-4,-3,5,-7,-3,4,29,6,11761
0.300744,-0.540706,2.03276,71.9375,-77.25,101.375,-0.51416,0.489746,0.850586,-5,2,-1,-2,-5,-1,-18,-1,11778
0.309932,-0.569739,2.06609,77.5,-68.625,106.438,-0.631836,0.134766,0.514648,1,-6,-9,-11,13,10,-16,-1,11795
0.30988,-0.57551,2.10006,71.0625,-43.125,86.9375,-0.742676,-0.227539,0.317871,3,-2,4,4,5,12,-61,-6,11812
0.30988,-0.57551,2.10006,71.0625,-43.125,86.9375,-0.742676,-0.227539,0.317871,5,-2,-2,1,-7,-5,-2,0,11829
0.301318,-0.565362,2.12634,45.1875,-20.375,53,-1.05273,-0.439941,0.265625,-15,-9,-6,-2,-3,1,11,0,11845
0.281184,-0.543846,2.14581,6.375,-3.25,28.5,-1.19824,-0.533691,0.265625,-4,-4,-4,-9,-16,-2,13,-3,11863
0.26066,-0.513587,2.15456,-14.375,20.75,-2.5625,-1.0625,-0.492188,0.226074,-5,-1,-7,-12,1,3,23,2,11880
0.26066,-0.513587,2.15456,-14.375,20.75,-2.5625,-1.0625,-0.492188,0.226074,13,6,8,4,-10,-3,10,1,11897
0.247502,-0.475982,2.14628,-22.0625,37.6875,-47.0625,-0.87793,-0.397461,0.29541,4,-6,-5,-9,-4,-1,3,4,11913
0.24414,-0.430262,2.12407,-21.25,50.1875,-79.625,-0.855957,-0.181152,0.392578,4,0,-15,4,0,1,9,-4,11929
0.249656,-0.378922,2.09331,-21.625,63.9375,-98.25,-0.72998,0.162598,0.51416,12,-4,-52,-30,-6,4,7,-2,11946
0.248635,-0.335408,2.05755,-42.9375,86.875,-119.563,-0.408691,0.42627,0.695801,-4,-10,39,-5,15,6,11,-4,11964
0.247489,-0.276663,2.01486,-50.125,126,-149.25,-0.0942383,0.994141,1.53076,-7,-8,-18,-24,-17,-2,22,-3,11980
0.161088,0.0410788,1.78631,-56.375,169.375,-158.5,0.938477,1.32861,1.58203,3,-4,-24,5,-1,-9,1,-3,12091
0.140434,0.129958,1.70489,-33.8125,105.625,-127.875,0.675293,0.794434,0.943359,-4,-3,6,-3,9,1,-11,-3,12108
0.140434,0.129958,1.70489,-33.8125,105.625,-127.875,0.675293,0.794434,0.943359,-2,-10,-19,0,-4,13,1,-5,12124
0.127677,0.140732,1.67483,-46.3125,72.6875,-99.1875,0.688477,0.401367,0.611328,-1,3,-2,4,10,1,3,-4,12141
0.114249,0.145491,1.64976,-36.3125,49.875,-78.5,0.604492,0.170898,0.36377,-5,5,-3,-6,5,-2,-7,-8,12158
0.114249,0.145491,1.64976,-36.3125,49.875,-78.5,0.604492,0.170898,0.36377,-6,7,-3,-6,2,0,-1,-3,12175
0.105463,0.144366,1.63021,-17.5,29.25,-59.4375,0.555176,0.0200195,0.114258,-7,-5,-1,-2,-4,-4,-6,0,12192
0.101608,0.136447,1.6135,-3.6875,10.9375,-48.6875,0.58252,-0.0131836,-0.106934,-4,-7,-4,-1,3,8,-2,3,12209
0.101608,0.136447,1.6135,-3.6875,10.9375,-48.6875,0.58252,-0.0131836,-0.106934,-5,-5,-2,2,-1,-7,9,-2,12226
0.101039,0.12354,1.60119,2.0625,-0.9375,-34.875,0.615723,-0.0136719,-0.269043,-2,3,0,1,5,-1,-6,-3,12243
0.107287,0.0764862,1.59418,6.125,-20.375,0.25,0.842285,0.0385742,-0.493652,-8,0,-8,-7,-3,3,-6,0,12262
0.111352,0.0480393,1.60258,-17.5625,-26.1875,25.1875,0.788086,0.373047,-0.306641,6,5,12,4,-3,3,-1,-1,12279
0.117865,0.00914359,1.62853,-19.3125,-58.5,80.375,0.650879,0.5,-0.133301,5,1,6,5,2,-2,-15,-6,12296
0.117373,-0.0333073,1.66915,-4.625,-94.75,128.25,0.742676,0.238281,-0.0996094,-3,9,-4,4,1,0,-1,-4,12314
0.117373,-0.0333073,1.66915,-4.625,-94.75,128.25,0.742676,0.238281,-0.0996094,-4,-9,-35,-13,-1,-6,-13,0,12331
0.120736,-0.0815429,1.71044,13.9375,-109.063,132.125,0.852051,0.17041,0.378906,6,-7,-10,11,-6,-5,-2,3,12348
0.2434,-0.379032,1.98389,105.813,-119.563,152.125,0.780762,1.47461,1.97217,6,1,0,0,14,5,-7,-19,12443
0.2434,-0.379032,1.98389,105.813,-119.563,152.125,0.780762,1.47461,1.97217,6,1,0,0,14,5,-7,-19,12460
0.257032,-0.417952,2.02181,67.6875,-87.3125,131.563,0.563477,1.32715,1.75098,-9,-7,14,-3,-3,-3,19,4,12477
0.257699,-0.4476,2.05896,37.1875,-67.0625,121.875,0.14502,1.03516,1.51123,0,-5,5,0,1,-6,3,-5,12494
0.253616,-0.473291,2.0971,30.3125,-59.625,120.188,-0.220215,0.760742,1.23584,-5,-2,-1,-4,3,2,14,2,12511
0.252979,-0.50047,2.13152,41.75,-67,108.813,-0.369141,0.45459,0.961914,2,3,-7,-3,-4,1,10,-3,12528
0.260234,-0.51345,2.16085,57.875,-65.875,95.0625,-0.387207,0.268066,0.747559,0,2,0,1,-2,18,10,-4,12545
0.267993,-0.523308,2.18765,62.5,-59.9375,84.3125,-0.509766,0.13916,0.598633,-2,-3,-5,1,3,-1,-13,-1,12562
0.267993,-0.523308,2.18765,62.5,-59.9375,84.3125,-0.509766,0.13916,0.598633,1,0,-1,-2,-9,-14,-45,1,12579
0.273754,-0.526551,2.21122,62.875,-47.375,65.75,-0.660156,-0.0834961,0.473145,-1,-6,-4,1,-2,-3,-5,0,12596
0.274541,-0.519412,2.22876,51.125,-26.25,38.75,-0.773926,-0.294434,0.389648,0,-15,-1,-3,-4,-2,-9,0,12614
0.274541,-0.519412,2.22876,51.125,-26.25,38.75,-0.773926,-0.294434,0.389648,-8,4,0,-4,10,2,11,-3,12631
0.252224,-0.472037,2.23792,-6.5625,13.875,-22.5625,-0.941406,-0.456055,0.296387,3,-1,-6,-4,-2,-6,4,2,12648
0.238888,-0.435073,2.22242,-28.75,30.8125,-63.5625,-0.937988,-0.449707,0.192383,7,6,4,-1,-4,2,-11,-5,12665
0.232364,-0.404497,2.18819,-53.875,48.5625,-106.188,-0.884277,-0.258301,0.277832,-14,-4,-18,-13,-10,-6,-5,-4,12681
0.229358,-0.370936,2.14341,-55.75,52.5,-135.125,-0.708008,-0.0102539,0.466309,2,0,15,8,-5,5,12,10,12699
0.205513,-0.223301,1.97193,-93.875,119.5,-200.125,-0.012207,2.18164,2.39111,21,4,16,49,-3,2,-35,2,12772
0.181733,-0.174138,1.91354,-101.188,106.375,-187.938,0.620117,2.17578,2.729,-2,4,-20,-14,4,-3,13,7,12789
0.14108,-0.124192,1.86602,-136.688,119.75,-156.375,1.47705,2.17285,2.62451,-33,5,19,22,12,0,7,-18,12806
0.107568,-0.0685023,1.80574,-112.875,136.813,-190.375,1.375,1.75098,2.21729,3,3,-3,-19,-8,-4,0,-17,12823
0.107568,-0.0685023,1.80574,-112.875,136.813,-190.375,1.375,1.75098,2.21729,4,-9,2,-8,3,6,6,-1,12840
0.0743294,-0.00922568,1.75086,-101.25,154.938,-171.75,1.01514,1.63525,1.8042,4,-12,-12,-7,-5,-20,2,-2,12857
0.0141081,0.0826879,1.661,-92.5,135.438,-129.125,0.645508,0.78125,0.9375,-4,-4,-8,-11,2,-7,4,-1,12874
0.0141081,0.0826879,1.661,-92.5,135.438,-129.125,0.645508,0.78125,0.9375,-4,-13,-11,-14,-3,-6,8,0,12891
-0.0120213,0.118259,1.62358,-72.125,113.125,-107.75,0.591309,0.495605,0.554688,-1,0,-4,-1,-1,4,-12,4,12908
-0.025174,0.133157,1.59302,-52.125,88.25,-88.5625,0.597656,0.368652,0.294922,-3,2,-3,-11,-14,-2,-3,-2,12925
-0.0351122,0.139413,1.56863,-35.1875,58.375,-69.3125,0.562012,0.245117,-0.00732422,2,-5,-2,-2,3,14,-13,-5,12941
-0.0424548,0.137412,1.55128,-20.1875,36.125,-49,0.633789,0.105957,-0.290039,-4,-2,-4,5,10,3,-17,1,12958
-0.0486471,0.132431,1.5405,-15.6875,29.1875,-29.3125,0.692383,0.0585938,-0.479004,1,-3,-5,-3,-1,-1,-3,-1,12975
-0.0486471,0.132431,1.5405,-15.6875,29.1875,-29.3125,0.692383,0.0585938,-0.479004,-8,-8,-11,-8,-2,-1,-1,-3,12992
-0.047221,0.12127,1.53963,3.875,13.9375,-2.3125,0.753906,0.0336914,-0.593262,0,4,6,2,13,-1,4,8,13010
-0.035277,0.101038,1.55014,25.125,-3.9375,29.1875,0.886719,0.103027,-0.64502,-3,2,-4,-8,0,-5,-15,2,13026
-0.000715892,-0.0153571,1.73142,-11.5625,-91.6875,179.563,0.876953,0.199219,0.512695,6,-3,25,18,4,-2,-5,-4,13092
-0.000715892,-0.0153571,1.73142,-11.5625,-91.6875,179.563,0.876953,0.199219,0.512695,8,-5,62,67,25,10,-31,-3,13109
0.0177261,-0.0671929,1.79775,47,-135.188,191.625,0.79541,0.790527,1.36865,-11,8,19,-16,-1,-8,-17,-1,13125
0.0177261,-0.0671929,1.79775,47,-135.188,191.625,0.79541,0.790527,1.36865,-11,2,-60,-35,1,4,-15,-14,13141
0.0466847,-0.141628,1.87057,104.563,-206.875,214.313,0.64502,1.24707,2.17188,0,3,27,15,2,7,12,4,13159
0.0466847,-0.141628,1.87057,104.563,-206.875,214.313,0.64502,1.24707,2.17188,-6,6,2,13,-4,-6,12,5,13176
0.118348,-0.311709,2.02057,144.375,-215.375,220.563,1.08398,1.39307,2.59229,15,-4,-27,-36,-9,-6,1,-3,13193
0.127877,-0.380029,2.07864,83.625,-175.125,179.188,0.921875,1.35254,2.3252,30,-7,21,11,2,-6,0,-5,13210
0.127877,-0.380029,2.07864,83.625,-175.125,179.188,0.921875,1.35254,2.3252,-19,-7,4,-2,-11,-7,2,2,13228
0.128887,-0.474197,2.16394,49.625,-113.75,118.75,0.0737305,1.01025,1.74951,2,-7,11,-5,-3,0,-9,5,13246
0.134967,-0.506085,2.20013,54.75,-94.625,110.563,-0.321777,0.938965,1.32324,6,-10,-3,1,6,-1,25,8,13263
0.134967,-0.506085,2.20013,54.75,-94.625,110.563,-0.321777,0.938965,1.32324,15,7,6,0,2,10,1,3,13281
0.140358,-0.53825,2.26342,45.25,-57.4375,83.9375,-0.458984,0.354492,0.63916,-2,6,-9,-12,-2,-6,-23,-3,13299
0.145811,-0.539479,2.28379,35.5625,-43.5,62.1875,-0.499023,0.242676,0.50293,5,3,-4,-3,-4,-4,1,-2,13317
0.145811,-0.539479,2.28379,35.5625,-43.5,62.1875,-0.499023,0.242676,0.50293,4,-2,7,2,0,-5,-15,-1,13334
0.145811,-0.539479,2.28379,35.5625,-43.5,62.1875,-0.499023,0.242676,0.50293,-17,-6,-9,-1,-8,-13,-5,-6,13351
0.151093,-0.394748,2.28771,-16.6875,64.3125,-82.75,-1.0332,-0.296875,0.213867,-9,0,-26,-15,-17,-9,-14,-5,13451
0.151093,-0.394748,2.28771,-16.6875,64.3125,-82.75,-1.0332,-0.296875,0.213867,4,5,47,23,12,12,-1,-1,13468
0.183712,-0.311728,2.19302,11.5625,77.75,-164.25,-0.784668,0.217285,0.835938,-10,-6,18,-12,2,-5,44,12,13485
0.209272,-0.258139,2.12905,8.5,103.438,-196.125,-0.348145,1.14111,1.67676,-18,-14,-59,-73,-6,-4,7,0,13502
0.209272,-0.258139,2.12905,8.5,103.438,-196.125,-0.348145,1.14111,1.67676,-5,-2,-33,-3,5,31,-84,-16,13518
0.148675,-0.172996,1.99743,-180.75,72,-192.438,1.30957,2.29688,3.06738,8,-13,-48,-10,-14,-27,-12,-1,13535
0.148675,-0.172996,1.99743,-180.75,72,-192.438,1.30957,2.29688,3.06738,3,11,-2,32,12,47,5,1,13552
0.0923942,-0.145984,1.93761,-188.375,56.4375,-177.375,1.92432,1.73047,2.7373,3,11,-2,32,12,47,5,1,13570
0.0923942,-0.145984,1.93761,-188.375,56.4375,-177.375,1.92432,1.73047,2.7373,7,-1,5,-10,-6,-27,25,11,13587
0.00147818,-0.0786284,1.79538,-163.875,100.25,-197.813,1.12012,1.52588,1.70752,4,1,23,4,1,7,-30,-9,13604
-0.0476648,-0.0453547,1.72824,-175.438,111.5,-188.125,0.688965,1.28125,1.23096,5,1,14,-17,2,23,-18,-7,13621
-0.0476648,-0.0453547,1.72824,-175.438,111.5,-188.125,0.688965,1.28125,1.23096,7,-48,8,6,7,21,-14,-7,13638
-0.125592,0.0115412,1.62369,-109.813,99.3125,-124,0.586914,0.653809,0.364258,-1,1,3,-3,-10,-9,-14,-5,13653
-0.125592,0.0115412,1.62369,-109.813,99.3125,-124,0.586914,0.653809,0.364258,-4,7,3,1,-3,3,-1,3,13670
-0.150871,0.0327054,1.58209,-78.0625,86.3125,-108.375,0.578613,0.499023,0.0224609,-4,7,3,1,-3,3,-1,3,13688
-0.150871,0.0327054,1.58209,-78.0625,86.3125,-108.375,0.578613,0.499023,0.0224609,-5,-2,3,-4,-1,-2,-27,-1,13705
-0.169121,0.0402764,1.52358,12.3125,34.1875,31.25,0.901855,0.20166,-0.602539,1,0,5,2,4,3,-2,-1,13794
-0.15199,0.028084,1.54171,28.75,19.1875,55.125,0.93457,0.33252,-0.413574,4,-2,0,1,3,7,4,-1,13812
-0.15199,0.028084,1.54171,28.75,19.1875,55.125,0.93457,0.33252,-0.413574,5,-11,-3,-5,3,-2,0,5,13830
-0.115113,-0.0053597,1.61746,36.375,-45.8125,122.625,0.778809,0.273926,-0.0795898,5,-11,-3,-5,3,-2,0,5,13846
-0.106025,-0.0289747,1.66733,23.4375,-70.25,136.063,0.755859,0.240234,0.317871,-9,-5,-18,-3,0,-5,-4,2,13863
-0.106025,-0.0289747,1.66733,23.4375,-70.25,136.063,0.755859,0.240234,0.317871,-16,-16,-15,-10,10,-6,-66,-14,13881
-0.0763349,-0.120176,1.79973,69.5625,-182.563,200.813,0.394043,1.73584,2.15674,-9,-6,-7,-10,3,1,-22,1,13897
-0.0763349,-0.120176,1.79973,69.5625,-182.563,200.813,0.394043,1.73584,2.15674,7,11,11,26,1,4,1,-4,13914
-0.0333255,-0.20383,1.89727,168.375,-254.688,262.75,0.763184,0.909668,2.66553,-13,1,22,-6,-18,-7,13,0,13931
-0.0333255,-0.20383,1.89727,168.375,-254.688,262.75,0.763184,0.909668,2.66553,7,6,-24,-17,-15,-6,21,0,13949
-0.0333255,-0.20383,1.89727,168.375,-254.688,262.75,0.763184,0.909668,2.66553,-6,-4,-6,8,4,3,0,-4,13967
0.0713045,-0.366287,2.05088,198.563,-215.313,183.25,1.27734,1.11523,2.4209,16,-4,-18,-5,-2,-10,11,-5,13984
0.090652,-0.418753,2.09633,105.313,-140.438,132,0.912109,1.37451,2.06445,-1,0,0,-2,0,18,-38,-5,14001
0.0890861,-0.497149,2.15918,32.9375,-111.375,85.875,-0.177734,0.760254,1.49854,-10,-2,13,8,4,-23,17,0,14018
0.0890861,-0.497149,2.15918,32.9375,-111.375,85.875,-0.177734,0.760254,1.49854,7,-12,0,1,-2,-6,2,1,14035
0.0941263,-0.531181,2.18833,48.4375,-106.563,87.125,-0.457031,0.591309,1.06738,-26,7,-4,-6,-9,-4,-10,-1,14052
0.0948552,-0.545775,2.29772,31.5625,-11.3125,18.0625,-0.829102,-0.364746,0.194336,-1,-1,-6,-4,-8,1,8,0,14150
0.0869405,-0.517228,2.29451,-2,17.375,-24.375,-0.938477,-0.414551,0.230469,11,-9,9,12,7,2,14,2,14167
0.0869405,-0.517228,2.29451,-2,17.375,-24.375,-0.938477,-0.414551,0.230469,-3,-6,-3,-7,4,8,-1,0,14184
0.0869405,-0.517228,2.29451,-2,17.375,-24.375,-0.938477,-0.414551,0.230469,8,10,1,-9,-10,-6,-7,3,14200
0.07819,-0.397493,2.21063,-35.8125,68.375,-120.063,-0.893555,-0.0424805,0.447754,1,-4,10,3,2,4,8,0,14217
0.07819,-0.397493,2.21063,-35.8125,68.375,-120.063,-0.893555,-0.0424805,0.447754,4,-1,17,4,-5,6,0,1,14235
0.0921601,-0.298548,2.09098,-49.6875,130,-181.563,-0.429199,1.06055,1.57617,-3,-2,-5,-55,-9,-8,8,-10,14253
0.0921601,-0.298548,2.09098,-49.6875,130,-181.563,-0.429199,1.06055,1.57617,-8,-5,96,-6,-15,-7,-19,10,14270
0.0893108,-0.246272,2.0273,-57.3125,133.25,-188.688,-0.0605469,2.12842,2.42578,-18,-5,-95,-21,-1,6,-60,-12,14287
0.0893108,-0.246272,2.0273,-57.3125,133.25,-188.688,-0.0605469,2.12842,2.42578,-2,3,15,15,-2,-2,-14,1,14304
0.0368977,-0.137376,1.89587,-129.063,152.688,-183.438,1.67236,2.28613,2.73633,7,-5,-1,21,4,14,-21,4,14322
-0.00904345,-0.0773573,1.82124,-154.5,168.813,-215.125,1.45215,1.91797,2.33789,8,1,6,12,2,-5,26,9,14340
-0.00904345,-0.0773573,1.82124,-154.5,168.813,-215.125,1.45215,1.91797,2.33789,9,-1,5,16,-2,7,17,1,14356
-0.121542,0.0377243,1.69378,-155.188,170.188,-160.813,0.916016,1.14063,1.49121,1,10,-5,8,6,-8,27,1,14373
-0.121542,0.0377243,1.69378,-155.188,170.188,-160.813,0.916016,1.14063,1.49121,-1,1,-17,-6,0,-22,1,-10,14390
-0.160263,0.0780994,1.63685,-118.313,151.375,-143.75,0.695313,0.842773,1.05615,-1,1,-17,-6,0,-22,1,-10,14407
-0.210421,0.11744,1.50204,-1.4375,46.4375,-50.0625,0.655762,0.187012,-0.399414,2,0,-8,-5,-5,2,20,-1,14500
-0.208101,0.104176,1.49506,-9.3125,14.625,12.5,0.6875,0.26709,-0.627441,0,-2,-2,-1,-1,6,-2,-10,14517
-0.208101,0.104176,1.49506,-9.3125,14.625,12.5,0.6875,0.26709,-0.627441,-3,-3,-6,-4,-4,-7,5,-7,14534
-0.206492,0.0854883,1.51249,-2.375,-8.5625,49.125,0.877441,0.159668,-0.636719,12,10,0,-4,2,6,-27,-2,14551
-0.206492,0.0854883,1.51249,-2.375,-8.5625,49.125,0.877441,0.159668,-0.636719,1,-1,8,-5,1,8,-7,22,14568
-0.177501,0.0297617,1.57416,32.25,-46.25,95.4375,0.921875,0.397949,-0.300293,-22,-4,-1,3,5,3,9,-13,14585
-0.158078,0.0072124,1.62359,45.375,-73.0625,131.188,0.856445,0.438477,-0.0297852,-15,-10,4,-11,-3,-7,-3,4,14603
-0.158078,0.0072124,1.62359,45.375,-73.0625,131.188,0.856445,0.438477,-0.0297852,1,-2,101,25,15,6,2,-5,14620
-0.123142,-0.0617927,1.74853,47.375,-119.188,173.563,0.850586,0.700684,1.11279,-15,-5,-62,-29,11,9,-39,-6,14636
-0.123142,-0.0617927,1.74853,47.375,-119.188,173.563,0.850586,0.700684,1.11279,-6,0,-89,23,-1,-10,-13,2,14653
-0.097409,-0.107847,1.82101,91.5,-153.75,191.063,0.68457,1.22021,1.90674,-6,0,-89,23,-1,-10,-13,2,14670
-0.097409,-0.107847,1.82101,91.5,-153.75,191.063,0.68457,1.22021,1.90674,19,10,20,102,25,7,21,0,14687
-0.097409,-0.107847,1.82101,91.5,-153.75,191.063,0.68457,1.22021,1.90674,7,4,23,7,8,7,27,3,14704
-0.00294743,-0.248908,1.9764,187.5,-219.063,218.063,0.709473,1.71289,2.60938,7,4,23,7,8,7,27,3,14721
-0.00294743,-0.248908,1.9764,187.5,-219.063,218.063,0.709473,1.71289,2.60938,2,-9,9,-40,-21,-6,-9,-16,14738
-0.00294743,-0.248908,1.9764,187.5,-219.063,218.063,0.709473,1.71289,2.60938,24,-14,-4,-2,-10,0,5,3,14755
-0.0107427,-0.479286,2.26205,34.9375,-75.3125,101.125,-0.431641,0.344238,0.770996,8,3,-5,-9,-7,-5,-30,-4,14826
-0.00199618,-0.482984,2.2967,58.9375,-69.375,93.875,-0.620117,0.211914,0.612305,4,-2,3,9,10,-4,0,6,14843
-0.00199618,-0.482984,2.2967,58.9375,-69.375,93.875,-0.620117,0.211914,0.612305,-3,-6,2,1,-2,-5,-13,0,14860
0.00857069,-0.480275,2.35908,52.75,-48.5625,69.75,-0.785645,-0.0844727,0.331543,3,0,11,3,-3,-7,2,1,14877
0.00857069,-0.480275,2.35908,52.75,-48.5625,69.75,-0.785645,-0.0844727,0.331543,-2,-5,0,-2,-5,0,1,-1,14895
0.00552246,-0.471516,2.37863,36.1875,-35.5625,39.875,-0.859375,-0.30957,0.28125,14,13,3,0,-2,1,10,7,14912
0.00552246,-0.471516,2.37863,36.1875,-35.5625,39.875,-0.859375,-0.30957,0.28125,9,0,17,10,4,-4,7,1,14929
-0.00692808,-0.428748,2.37124,-3.25,6,-44.875,-0.95166,-0.432129,0.303223,-8,-1,16,3,4,3,7,-3,14947
-0.00768953,-0.391533,2.33679,-23.625,29.4375,-98.125,-1.06445,-0.308105,0.37793,20,2,3,-5,-6,-8,7,3,14965
-0.00768953,-0.391533,2.33679,-23.625,29.4375,-98.125,-1.06445,-0.308105,0.37793,-6,1,-42,17,-5,-8,-6,2,14982
0.00496511,-0.331472,2.2274,-44.75,78.625,-158.938,-0.83252,0.404785,0.725586,0,-2,-32,36,12,-1,-11,9,14999
0.00496511,-0.331472,2.2274,-44.75,78.625,-158.938,-0.83252,0.404785,0.725586,-4,-1,-21,-37,2,10,18,-4,15016
0.0156039,-0.287062,2.1553,-51.125,110.938,-192.25,-0.460938,1.12891,1.47217,-10,-1,10,7,-15,-11,-21,1,15033
0.0156039,-0.287062,2.1553,-51.125,110.938,-192.25,-0.460938,1.12891,1.47217,9,7,30,14,6,-24,-19,5,15050
-0.0203835,-0.191814,2.01382,-127.063,139.938,-196.813,0.958008,2.22119,2.74756,5,3,-15,11,-3,-7,34,2,15068
-0.059569,-0.138474,1.94895,-142.813,160.313,-177.375,1.5166,2.10059,2.72363,-3,3,3,-2,-12,-24,-10,17,15085
-0.217406,0.0310905,1.73252,-192.438,187.438,-145.938,1.00488,1.22119,1.46924,6,-3,8,-9,-2,1,-3,-3,15153
-0.217406,0.0310905,1.73252,-192.438,187.438,-145.938,1.00488,1.22119,1.46924,-3,1,-3,-1,-2,-18,13,1,15170
-0.292829,0.0929054,1.62892,-74.875,118.75,-108.875,0.772949,0.384766,0.479492,4,-5,-6,11,4,2,-40,3,15187
-0.311684,0.1081,1.58563,-48,91.6875,-101.375,0.798828,0.351074,0.150879,-15,-22,-1,4,5,13,-41,-11,15204
-0.311684,0.1081,1.58563,-48,91.6875,-101.375,0.798828,0.351074,0.150879,-6,10,-6,3,2,3,-3,-8,15220
-0.347415,0.105395,1.53228,-47.8125,58.3125,-42.5,0.755859,0.186523,-0.277344,-1,4,11,10,3,8,2,0,15237
-0.347415,0.105395,1.53228,-47.8125,58.3125,-42.5,0.755859,0.186523,-0.277344,-2,-5,-9,-7,-12,2,-6,3,15254
-0.355981,0.0947316,1.52172,-16.5,31.25,-19.875,0.833008,0.0966797,-0.46875,-3,-9,-5,-5,-2,-7,-42,-7,15271
-0.355981,0.0947316,1.52172,-16.5,31.25,-19.875,0.833008,0.0966797,-0.46875,-1,7,0,1,-2,2,-1,5,15288
-0.352706,0.0587167,1.52334,23.5,0.3125,15.5,0.948242,0.043457,-0.645996,1,7,3,-3,2,-1,3,-15,15305
-0.340484,0.0386106,1.5381,22.75,-9.875,40.875,0.938477,0.297852,-0.411621,0,3,6,1,-6,-2,8,5,15322
-0.340484,0.0386106,1.5381,22.75,-9.875,40.875,0.938477,0.297852,-0.411621,6,-7,3,-3,-11,-2,0,1,15340
-0.306091,-0.024444,1.60839,31.5625,-76.25,96.4375,0.914551,0.223633,-0.0463867,25,13,-23,16,12,3,-5,3,15356
-0.306091,-0.024444,1.60839,31.5625,-76.25,96.4375,0.914551,0.223633,-0.0463867,-45,0,-7,-26,-21,-16,-5,-24,15372
-0.294116,-0.0505162,1.6538,32.625,-95.75,106.813,0.889648,0.225098,0.435059,-15,-1,-1,2,-5,1,30,12,15389
-0.294116,-0.0505162,1.6538,32.625,-95.75,106.813,0.889648,0.225098,0.435059,-16,-5,-39,-17,-15,-10,-37,0,15406
-0.216335,-0.203175,1.86743,150.125,-264.25,190.75,0.57959,1.0542,2.65674,12,-3,-37,25,-4,8,23,17,15469
-0.142498,-0.3501,2.03034,156.438,-236.313,174,1.03809,1.44873,2.3335,15,13,72,41,20,5,-13,0,15486
-0.136662,-0.401462,2.10043,90.375,-171.75,164.688,0.976563,1.28125,2.06592,-1,9,-21,-36,-1,25,-11,5,15503
-0.136662,-0.401462,2.10043,90.375,-171.75,164.688,0.976563,1.28125,2.06592,-6,3,8,12,-6,-4,-37,-6,15520
-0.154741,-0.452222,2.21839,28.6875,-90.1875,143.938,-0.213867,1.00391,1.5542,2,-22,-5,4,-8,7,27,-14,15536
-0.154741,-0.452222,2.21839,28.6875,-90.1875,143.938,-0.213867,1.00391,1.5542,5,11,-18,10,6,3,-1,3,15553
-0.154854,-0.466453,2.27234,58.625,-77.0625,133.063,-0.439453,0.476074,1.09082,8,15,12,-14,-17,7,-2,-12,15570
-0.154854,-0.466453,2.27234,58.625,-77.0625,133.063,-0.439453,0.476074,1.09082,-13,-8,6,-1,-5,-5,-12,3,15587
-0.153387,-0.471235,2.36082,41.5625,-22.8125,102.875,-0.571777,0.202148,0.552734,0,-7,17,-2,-6,-8,6,-6,15603
-0.153387,-0.471235,2.36082,41.5625,-22.8125,102.875,-0.571777,0.202148,0.552734,-3,19,-5,-5,4,5,-8,0,15620
-0.162442,-0.448227,2.39792,15.8125,-12.625,96.625,-0.839844,0.0400391,0.390137,-3,2,0,-3,-5,-10,12,5,15637
-0.162442,-0.448227,2.39792,15.8125,-12.625,96.625,-0.839844,0.0400391,0.390137,10,-13,-1,-8,-12,-7,6,1,15654
-0.192844,-0.391585,2.44586,-5.375,12.25,38.9375,-0.996094,-0.324219,0.0922852,-11,2,-11,-8,1,4,-7,-1,15671
-0.202902,-0.359372,2.44753,-4.875,25.1875,0.5625,-0.991211,-0.372559,0.0810547,-7,-1,-17,-12,-7,-1,2,2,15688
-0.202902,-0.359372,2.44753,-4.875,25.1875,0.5625,-0.991211,-0.372559,0.0810547,-9,5,5,6,7,3,3,3,15705
-0.202902,-0.359372,2.44753,-4.875,25.1875,0.5625,-0.991211,-0.372559,0.0810547,-1,-2,1,-12,-25,-6,-3,4,15722
-0.162807,-0.205338,2.24421,4,112.625,-171.438,-0.54248,0.82373,1.3042,-10,-10,-9,47,-4,-2,-10,-8,15798
-0.162807,-0.205338,2.24421,4,112.625,-171.438,-0.54248,0.82373,1.3042,-2,6,-39,3,6,-11,14,-3,15815
-0.178087,-0.117717,2.02657,-98.5,135.75,-183.938,1.71289,1.94824,2.73438,-23,12,11,18,4,2,4,3,15831
-0.178087,-0.117717,2.02657,-98.5,135.75,-183.938,1.71289,1.94824,2.73438,6,4,1,34,4,-19,19,0,15848
-0.205263,-0.0819108,1.93166,-105.063,152.063,-246,1.44385,1.74756,2.37451,17,-2,52,32,0,1,21,3,15865
-0.24769,-0.0416301,1.83854,-138.125,172.25,-234.188,0.992188,1.41406,2.02295,7,7,4,-18,-6,-12,35,3,15882
-0.295699,-0.0071535,1.75063,-143.625,162.75,-216.25,0.814453,1.17383,1.7085,5,7,24,1,4,9,-16,-3,15899
-0.331959,0.0154477,1.67551,-125.813,139.813,-180.938,0.644531,0.98584,1.25879,3,4,-4,9,-2,7,11,-4,15917
-0.360618,0.029622,1.61547,-93.0625,109.625,-144.188,0.745605,0.645996,0.803711,4,-2,10,-17,-11,-14,1,-1,15933
-0.380561,0.0347936,1.56348,-60.75,80.125,-128.875,0.750488,0.40332,0.34375,-8,-3,-12,-6,-4,-4,-15,-7,15950
-0.380561,0.0347936,1.56348,-60.75,80.125,-128.875,0.750488,0.40332,0.34375,3,9,-11,-4,0,6,2,6,15967
-0.3955,0.0382565,1.52139,-43.75,65.375,-103.563,0.657227,0.345703,0.00292969,-2,1,-5,2,3,18,-9,6,15985
-0.406143,0.0309985,1.49222,-35.25,53.625,-68,0.651367,0.24707,-0.269043,-3,-15,-2,2,2,8,-47,-3,16002
-0.41867,0.0235913,1.47404,-30.9375,41.625,-38.5625,0.661133,0.15625,-0.458984,-4,-4,2,-2,-3,-1,11,-1,16020
-0.425099,0.0122209,1.46779,-4.0625,19.6875,-10.875,0.685547,0.0429688,-0.601074,-6,8,3,0,2,0,-11,-2,16038
-0.425706,-0.00582165,1.47279,15.875,-0.8125,15.5,0.845703,0.0317383,-0.710938,-6,-2,-4,-3,-8,-3,2,8,16055
-0.369182,-0.0980638,1.7024,69.875,-123.5,158,0.805176,0.515137,1.05664,-13,1,-29,-19,9,8,4,9,16162
-0.33397,-0.130048,1.78629,128.313,-168.125,192.5,0.743652,1.49268,1.99756,16,0,-17,27,10,12,10,5,16179
-0.33397,-0.130048,1.78629,128.313,-168.125,192.5,0.743652,1.49268,1.99756,-4,-10,-75,-66,1,4,-11,3,16196
-0.296625,-0.184028,1.89107,153.938,-239.125,234.5,0.957031,1.23047,2.57861,-16,9,4,15,3,-4,-12,-15,16214
-0.268803,-0.237836,1.9952,142.063,-229.875,237.5,1.26953,1.39844,2.71924,-11,-5,10,27,-13,-5,4,-5,16232
-0.256935,-0.293711,2.07852,96.8125,-214.375,180.938,1.18066,1.28125,2.56104,12,7,-5,6,-3,-3,6,1,16250
-0.257983,-0.336295,2.14736,58.125,-165.875,150.563,0.908203,1.25049,2.21533,-8,-5,13,6,5,3,-19,-14,16267
-0.266998,-0.372521,2.20327,29.6875,-139.438,117.813,0.540039,1.1001,1.92334,-8,-5,13,6,5,3,-19,-14,16284
-0.265633,-0.400461,2.24917,31.25,-120.75,103.125,-0.0395508,1.03174,1.53662,-17,-7,7,3,-3,-3,8,2,16302
-0.265633,-0.400461,2.24917,31.25,-120.75,103.125,-0.0395508,1.03174,1.53662,9,4,0,-1,-4,-4,17,0,16319
-0.260442,-0.431748,2.33752,37.625,-93.125,97.5625,-0.310547,0.409668,0.838867,1,5,-9,-2,0,-6,5,-3,16336
-0.251208,-0.433504,2.37286,41.9375,-78.5,87.3125,-0.526367,0.301758,0.611328,-5,-10,0,5,0,-5,-15,-1,16353
-0.251208,-0.433504,2.37286,41.9375,-78.5,87.3125,-0.526367,0.301758,0.611328,-6,-2,-5,-5,-1,1,-15,-5,16370
-0.247208,-0.429496,2.40708,36.9375,-65.9375,82.5625,-0.69873,0.154785,0.440918,-5,4,-7,-5,-3,-6,-9,1,16387
-0.250805,-0.421257,2.43819,26.5625,-49.5,70.875,-0.740234,-0.0566406,0.261719,-2,-2,-4,-1,12,-3,6,0,16404
-0.259573,-0.407705,2.45698,6.0625,-29.25,39.1875,-0.796875,-0.206543,0.21875,5,-7,2,0,4,4,2,-1,16420
-0.277956,-0.285911,2.34211,-60.625,79.8125,-128,-0.699219,0.134766,0.523926,-5,-17,-49,-49,-4,-2,-2,-4,16519
-0.278987,-0.256272,2.27503,-69.6875,119,-154.25,-0.56543,0.59668,1.11621,-10,-1,25,-5,-9,-3,-5,0,16536
-0.278987,-0.256272,2.27503,-69.6875,119,-154.25,-0.56543,0.59668,1.11621,3,1,29,-51,-6,15,18,1,16554
-0.274592,-0.206947,2.1316,-54.25,115.375,-185.438,0.901367,1.97754,2.69336,-14,8,5,35,11,-5,-37,-1,16572
-0.274592,-0.206947,2.1316,-54.25,115.375,-185.438,0.901367,1.97754,2.69336,-2,-7,-26,5,-4,-6,-15,2,16588
-0.305926,-0.168722,2.06429,-125.563,159.25,-150.688,1.70068,2.35107,2.7959,-4,-30,-21,8,1,-12,4,5,16605
-0.344376,-0.133108,1.98097,-146.375,172.188,-191,1.66113,1.6499,2.3877,6,-1,22,23,2,-2,-5,-3,16622
-0.379341,-0.0913936,1.89255,-128.375,200.938,-193.375,1.19727,1.4873,2.03125,7,1,-7,-17,-9,-1,14,0,16638
-0.417412,-0.0503093,1.81149,-125.75,198.563,-168.188,1.06689,1.15625,1.56348,7,3,-11,23,7,19,-41,-7,16657
-0.417412,-0.0503093,1.81149,-125.75,198.563,-168.188,1.06689,1.15625,1.56348,-1,1,7,2,2,-9,21,0,16674
-0.479574,0.00582898,1.66299,-99.4375,163.188,-140.125,0.682617,0.507324,0.810547,0,-9,-6,3,-1,10,0,-4,16691
-0.479574,0.00582898,1.66299,-99.4375,163.188,-140.125,0.682617,0.507324,0.810547,1,-14,3,5,2,1,3,2,16707
-0.501927,0.0225716,1.60575,-71.3125,131.688,-116,0.781738,0.408691,0.446289,10,12,2,-1,0,5,1,2,16724
-0.513651,0.0181249,1.55965,-52.625,98.875,-96.5,0.757813,0.365234,0.0366211,-7,8,-6,-1,-2,-5,13,2,16742
-0.529747,0.0155328,1.52726,-51.75,81.3125,-60.75,0.702637,0.298828,-0.276855,-7,-8,2,-7,-7,-7,-16,-3,16759
-0.550054,0.0109733,1.50574,-50.25,61.8125,-34.1875,0.722168,0.17627,-0.483398,-9,-8,-4,-5,-5,-9,-11,-2,16776
-0.576369,-0.0338901,1.5043,3,2.25,25.0625,0.97998,0.212891,-0.462891,-2,-10,-2,-3,-10,1,12,4,16844
-0.570508,-0.0505956,1.53027,-3.5625,-31.625,69.0625,0.846191,0.521484,-0.206055,1,6,-3,-2,-1,-12,0,1,16862
-0.57012,-0.057217,1.58009,4.5,-81.75,117.063,0.777832,0.386719,-0.131348,19,15,3,-8,14,11,2,-6,16879
-0.57012,-0.057217,1.58009,4.5,-81.75,117.063,0.777832,0.386719,-0.131348,-18,-18,-25,-12,-3,7,13,-1,16896
-0.568167,-0.0632647,1.63923,11.375,-91.9375,142.688,0.989746,0.132813,0.208496,-5,-7,35,14,-6,4,6,-8,16913
-0.557946,-0.0679592,1.69729,39.875,-100,133.188,1.00146,0.646973,1.0791,8,9,-3,-5,-2,-9,-29,-4,16930
-0.530248,-0.0835934,1.77382,96.1875,-151.625,163.938,0.665527,1.51123,1.93457,6,6,-8,-8,7,10,2,3,16946
-0.490026,-0.113555,1.87241,142.938,-212.5,203.813,0.783691,1.05518,2.35938,6,1,-14,-13,-16,-12,13,6,16963
-0.449299,-0.146593,1.97484,154.938,-216.125,216.563,0.89209,1.34521,2.68066,-13,-3,19,-19,-2,5,7,-7,16980
-0.416962,-0.193293,2.07122,139.188,-235.938,191.188,0.753418,1.13965,2.52588,8,0,-7,19,9,3,11,-1,16998
-0.389926,-0.236553,2.15616,129.5,-207.313,170,0.676758,1.08838,2.33789,15,-10,26,6,9,7,4,-1,17015
-0.389926,-0.236553,2.15616,129.5,-207.313,170,0.676758,1.08838,2.33789,-5,7,5,-5,-1,-8,-7,-4,17031
-0.378471,-0.27891,2.22959,86.375,-188.875,143.375,0.5,1.16797,2.05029,-14,5,-4,0,3,8,16,-3,17049
-0.374246,-0.319723,2.2933,65.875,-173.375,119.313,-0.00292969,0.984863,1.729,7,-8,-16,-17,-13,-7,5,-1,17065
-0.368353,-0.351401,2.35178,54.75,-153.313,116.563,-0.25,0.688965,1.23438,5,-25,-7,-8,-4,0,6,-4,17083
-0.364197,-0.376565,2.40489,55.1875,-129.313,107.188,-0.32373,0.357422,0.958008,5,-1,20,5,1,-3,-9,-1,17100
-0.336368,-0.418282,2.49425,84.9375,-104.438,81,-0.647949,0.158203,0.562012,3,4,-8,4,1,-2,6,-3,17162
-0.32508,-0.411281,2.54,24.875,-43.6875,24.3125,-0.762207,-0.21875,0.345703,4,16,6,6,3,4,10,0,17179
-0.331435,-0.38978,2.53696,-11.875,-0.1875,-13,-0.882813,-0.273438,0.312012,-1,-10,1,2,-5,0,-2,-1,17197
-0.331435,-0.38978,2.53696,-11.875,-0.1875,-13,-0.882813,-0.273438,0.312012,-1,-31,12,-2,0,1,-4,1,17214
-0.34542,-0.324641,2.48146,-42.5625,44.9375,-88.8125,-1.1792,-0.304688,0.364746,3,8,-15,-16,-9,-13,-8,-3,17231
-0.34542,-0.324641,2.48146,-42.5625,44.9375,-88.8125,-1.1792,-0.304688,0.364746,-3,13,-13,-3,4,5,6,-1,17248
-0.346331,-0.313114,2.43326,-46.5,57.25,-118.625,-1.04346,-0.118652,0.404785,-1,0,-21,18,14,12,12,1,17266
-0.345256,-0.298977,2.37303,-55.75,79.75,-144.063,-0.73877,0.186035,0.582031,-20,-10,-42,-72,-13,-2,0,1,17283
-0.339052,-0.282961,2.29793,-60.8125,99.3125,-177.75,-0.489258,0.640625,1.19238,-34,-12,-25,-30,-13,-8,4,7,17301
-0.339052,-0.282961,2.29793,-60.8125,99.3125,-177.75,-0.489258,0.640625,1.19238,1,2,3,24,11,7,26,-1,17318
-0.342844,-0.26369,2.21773,-72.9375,126.188,-190.188,-0.126465,1.8623,2.08936,17,6,-73,-48,-16,-13,-51,-12,17335
-0.368539,-0.247991,2.1294,-137.625,127.313,-214.375,0.614746,1.81152,2.42529,5,1,0,-2,3,-6,-36,-1,17353
-0.410182,-0.218592,2.04168,-177.625,170.875,-194.5,1.28662,2.2417,2.85938,1,2,24,25,1,2,5,-3,17369
-0.46464,-0.18968,1.95646,-205.688,176.688,-181.75,1.59814,1.99414,2.58887,3,12,-16,-1,3,-1,4,-4,17386
-0.521977,-0.156582,1.86604,-209,204.375,-180.188,1.34912,1.66553,2.27051,-9,-6,-1,-8,-8,-11,-1,-3,17403
-0.574405,-0.125603,1.78578,-182.75,194.438,-148.375,1.18994,1.43652,1.75195,0,-15,10,2,5,5,12,3,17421
-0.670517,-0.115965,1.52006,-21.6875,47.1875,-76.375,0.651855,0.142578,-0.367188,-3,12,1,3,5,5,-16,-4,17527
-0.674485,-0.140606,1.50029,-4.6875,22.875,-55.8125,0.724121,0.157227,-0.519043,-12,-6,-1,-1,-6,0,-14,4,17544
-0.679846,-0.167871,1.49365,0.4375,-1.25,-28.8125,0.792969,0.137207,-0.608398,-9,-7,-4,-7,-6,-5,-3,-2,17560
-0.679846,-0.167871,1.49365,0.4375,-1.25,-28.8125,0.792969,0.137207,-0.608398,-2,-2,1,4,4,2,-1,0,17577
-0.688731,-0.19568,1.50039,7.25,-18.625,2.4375,0.891113,-0.00244141,-0.689453,2,0,-2,-6,-1,5,9,2,17594
-0.691977,-0.221303,1.51571,15.1875,-27.0625,29.25,0.943848,0.162109,-0.568359,-5,8,-5,-7,3,-7,-4,-7,17611
-0.687239,-0.24547,1.54509,26.25,-54.25,63.3125,0.890137,0.41748,-0.375977,-4,5,1,2,4,2,-4,2,17627
-0.686041,-0.248901,1.59601,35.6875,-84,115.5,0.964844,0.450195,-0.259766,-5,-12,-40,3,6,3,-11,-5,17644
-0.689081,-0.248005,1.66063,27.4375,-100.875,152.063,0.966797,0.421875,0.308105,-5,-12,-40,3,6,3,-11,-5,17662
-0.689081,-0.248005,1.66063,27.4375,-100.875,152.063,0.966797,0.421875,0.308105,-6,12,-9,-13,-21,-13,9,0,17680
-0.688047,-0.243265,1.74101,59.3125,-131.5,181.063,0.905762,0.796875,1.21777,16,-10,84,72,13,5,-23,2,17698
-0.668599,-0.246388,1.843,126.625,-185.125,215.313,0.918945,1.45215,2.04541,2,6,4,-53,-11,-7,-3,-5,17715
-0.62609,-0.2624,1.95806,204.625,-229.438,227.375,1.00537,1.06494,2.56689,6,14,-14,15,3,8,0,2,17733
-0.577204,-0.280025,2.07345,229.125,-222.188,234.375,1.18652,1.69189,2.76318,-4,0,5,-15,-6,-4,-10,-4,17748
-0.577204,-0.280025,2.07345,229.125,-222.188,234.375,1.18652,1.69189,2.76318,-1,-26,1,9,3,6,20,2,17765
-0.553582,-0.302606,2.17281,149.313,-200.938,195.625,1.29639,0.987793,2.41211,27,1,14,6,-2,-8,14,-1,17783
-0.531456,-0.355293,2.49647,45.8125,-79.8125,99.3125,-0.516602,0.240234,0.610352,-18,-7,-2,-3,-5,1,1,1,17883
-0.524688,-0.340005,2.5367,43.75,-68.125,91.8125,-0.733398,0.0307617,0.435059,3,-6,-2,1,-7,-3,-3,3,17900
-0.524392,-0.319969,2.56683,32.8125,-45.5,66.5,-0.858398,-0.209473,0.268555,-26,-7,-1,-4,7,0,-1,0,17918
-0.524392,-0.319969,2.56683,32.8125,-45.5,66.5,-0.858398,-0.209473,0.268555,5,20,4,2,-8,-1,-2,0,17935
-0.526953,-0.293885,2.57893,17,-12.8125,25.75,-1.01465,-0.338867,0.170898,-19,-13,-6,-3,-1,-3,21,3,17953
-0.529375,-0.262396,2.57526,6.4375,14.875,-8.375,-1.15137,-0.354492,0.122559,-1,-18,-8,-2,3,-16,2,-1,17970
-0.53055,-0.230661,2.55757,-0.5,34.125,-41.4375,-1.15527,-0.371094,0.149902,4,3,5,0,3,3,3,0,17987
-0.531277,-0.201548,2.52678,-17.1875,49.375,-72.1875,-1.06738,-0.246582,0.274902,11,10,-12,-8,-1,-2,7,2,18004
-0.531277,-0.201548,2.52678,-17.1875,49.375,-72.1875,-1.06738,-0.246582,0.274902,0,-7,-15,-24,-29,-3,-4,-2,18022
-0.531365,-0.195016,2.48311,-28.5,64.0625,-103.688,-0.883789,-0.0395508,0.444824,0,-7,-15,-24,-29,-3,-4,-2,18039
-0.527735,-0.192762,2.42642,-30.8125,75.375,-138.563,-0.572754,0.202148,0.759766,-14,-15,-40,8,2,-7,-15,-8,18057
-0.527735,-0.192762,2.42642,-30.8125,75.375,-138.563,-0.572754,0.202148,0.759766,5,19,39,7,0,-9,-7,0,18075
-0.527735,-0.192762,2.42642,-30.8125,75.375,-138.563,-0.572754,0.202148,0.759766,-17,2,20,22,-2,8,19,2,18091
-0.537782,-0.182432,2.208,-112.375,131.188,-181.063,1.54541,2.24609,2.97998,-12,-7,-26,-31,0,-2,-21,-2,18108
-0.581685,-0.168996,2.13024,-164.813,149.063,-165.563,1.94629,2.59375,2.82568,-10,2,-14,-16,-1,-4,-26,-5,18125
-0.581685,-0.168996,2.13024,-164.813,149.063,-165.563,1.94629,2.59375,2.82568,13,14,28,-38,-11,6,-6,2,18143
-0.697391,-0.109414,1.73539,-86.25,125.813,-123.563,0.535645,0.451172,0.57959,-12,-6,5,-10,3,-6,-19,-4,18229
-0.712646,-0.111504,1.68694,-66.9375,91.5,-101.938,0.552734,0.396484,0.276855,2,-4,6,-5,3,-6,25,7,18247
-0.726451,-0.12846,1.65074,-61.3125,61.4375,-81.75,0.571777,0.26416,-0.0742188,-13,-10,0,-2,-26,-19,-48,-29,18265
-0.74694,-0.147965,1.62186,-62.4375,45.25,-70.75,0.571777,0.126465,-0.294922,2,5,5,-1,12,14,8,8,18282
-0.76729,-0.166348,1.6009,-51.8125,35.1875,-51.8125,0.577637,0.0874023,-0.42334,0,-11,-6,-4,11,4,6,5,18300
-0.76729,-0.166348,1.6009,-51.8125,35.1875,-51.8125,0.577637,0.0874023,-0.42334,4,-12,0,-2,5,-2,-2,0,18316
-0.786073,-0.18464,1.58909,-35.375,23.5625,-29.5,0.647949,0.0332031,-0.539063,-2,13,-2,-4,-9,-10,3,-4,18333
-0.800709,-0.205799,1.58493,-17,10.1875,-14.25,0.774902,0.0234375,-0.587891,-1,7,-2,-5,-4,-1,-15,-5,18350
-0.800709,-0.205799,1.58493,-17,10.1875,-14.25,0.774902,0.0234375,-0.587891,-5,-6,4,1,-3,2,5,4,18368
-0.81016,-0.228137,1.58855,-10.4375,-4.6875,5.4375,0.858398,0.211426,-0.499512,3,-4,1,-3,2,2,-3,-4,18385
-0.815118,-0.261862,1.64122,13,-47.0625,95.5,1.03418,0.48291,-0.382324,-5,7,0,-1,14,9,0,0,18402
-0.815118,-0.261862,1.64122,13,-47.0625,95.5,1.03418,0.48291,-0.382324,9,5,24,1,3,1,3,2,18419
-0.815118,-0.261862,1.64122,13,-47.0625,95.5,1.03418,0.48291,-0.382324,-12,-7,-66,-33,-10,-2,-5,-5,18436
-0.796909,-0.233568,1.81795,122.688,-133.563,180.938,0.819824,1.6333,1.78223,-4,-7,-3,8,-14,-6,-4,2,18453
-0.796909,-0.233568,1.81795,122.688,-133.563,180.938,0.819824,1.6333,1.78223,-5,-29,-72,-22,-15,-19,-10,0,18469
-0.758197,-0.237182,1.93239,187.625,-231.375,219.75,0.952637,1.25244,2.46631,-8,2,58,56,-2,-5,13,4,18486
-0.657112,-0.258012,2.24418,126.188,-165.438,161.313,1.12939,1.1001,2.28711,0,14,41,15,9,3,19,2,18555
-0.65535,-0.270367,2.30822,52.875,-136.563,118.875,0.651855,1.18896,2.00049,-5,-1,40,12,20,10,1,-9,18572
-0.657274,-0.285969,2.36341,37.8125,-128.313,93.1875,-0.146973,1.01904,1.7334,7,-3,10,-3,8,2,-14,0,18589
-0.654167,-0.296621,2.42102,56.5625,-120.438,106.75,-0.464355,0.856445,1.2251,0,0,0,-10,2,8,-25,0,18605
-0.642041,-0.301154,2.47052,62.3125,-101.625,98.5,-0.35498,0.444336,0.867188,9,22,-7,-13,-12,-15,14,0,18622
-0.61769,-0.29431,2.50433,60.5,-74.875,74.0625,-0.421387,0.239258,0.65918,0,10,-3,-12,-38,-9,-6,0,18639
-0.60081,-0.279078,2.53177,46.125,-51.25,65.4375,-0.644043,0.151855,0.443848,0,-13,11,-1,-2,5,-8,2,18655
-0.60081,-0.279078,2.53177,46.125,-51.25,65.4375,-0.644043,0.151855,0.443848,-4,-17,5,3,-4,-29,26,4,18672
-0.596313,-0.25519,2.55446,27.75,-33.5625,53.5,-0.916016,-0.119141,0.263184,-1,8,-3,-4,4,8,5,3,18689
-0.602432,-0.224787,2.5634,6.25,0.3125,25,-1.02881,-0.359863,0.0527344,-1,8,-3,-4,4,8,5,3,18706
-0.614678,-0.191636,2.55625,-19.5625,27.3125,-10.25,-1.08984,-0.439453,0.10791,3,-7,3,3,1,2,-14,-2,18723
-0.614678,-0.191636,2.55625,-19.5625,27.3125,-10.25,-1.08984,-0.439453,0.10791,7,-8,-6,-9,-24,0,-6,-6,18740
-0.63476,-0.133419,2.51862,-21.9375,39.875,-53.4375,-1.0459,-0.411621,0.271484,4,7,15,0,18,35,6,2,18758
-0.63476,-0.133419,2.51862,-21.9375,39.875,-53.4375,-1.0459,-0.411621,0.271484,-8,12,3,-5,-3,-3,-4,-2,18775
-0.636607,-0.111138,2.48096,-30.6875,63.5625,-84.125,-0.870117,-0.0976563,0.395508,-20,-9,31,-21,1,-23,-8,1,18792
-0.645957,-0.105188,2.42975,-50,90.8125,-113.313,-0.68457,0.12793,0.539063,1,-5,35,37,3,18,10,6,18809
-0.665392,-0.106104,2.21634,-49.125,120,-177.188,0.665527,1.9375,2.79395,6,-1,-2,16,50,-2,-24,-2,18874
-0.691011,-0.109102,2.13847,-97.125,132.563,-178.563,1.26465,2.43896,2.95166,13,-26,-11,-2,54,25,32,0,18891
-0.739342,-0.1098,2.06379,-162,137.938,-161.875,1.95947,2.1377,2.4585,11,3,-34,-9,26,27,11,-1,18908
-0.79352,-0.109747,1.97159,-184.313,182.688,-189.25,1.50439,1.51563,2.02979,6,12,-15,-4,-55,-84,11,-16,18925
-0.834713,-0.104149,1.88279,-145.25,195.063,-162.438,1.08057,1.38379,1.6499,4,0,13,10,-5,-4,9,5,18942
-0.866209,-0.098102,1.80204,-113.875,184.188,-138.563,0.935059,1.09814,1.1709,6,-20,-5,1,-28,-46,-1,-4,18959
-0.866209,-0.098102,1.80204,-113.875,184.188,-138.563,0.935059,1.09814,1.1709,26,10,-4,9,26,38,0,-8,18976
-0.888686,-0.0981781,1.73219,-100.938,160,-116.688,0.70752,0.700195,0.730957,14,4,-2,-1,54,32,-58,-29,18994
-0.911826,-0.100598,1.67282,-93.3125,134.063,-101.813,0.58252,0.476563,0.415039,4,14,-9,1,4,-18,-69,-27,19011
-0.932108,-0.106271,1.62587,-75.0625,101.875,-86.8125,0.489746,0.274902,0.0380859,-21,-5,2,2,-13,13,-5,-5,19028
-0.932108,-0.106271,1.62587,-75.0625,101.875,-86.8125,0.489746,0.274902,0.0380859,40,-6,0,1,0,-1,37,3,19045
-0.978844,-0.139149,1.56118,-67,58.125,-57.125,0.460449,0.15918,-0.328125,-21,5,-4,2,4,-7,21,8,19063
-0.999589,-0.158113,1.5467,-38.5,28.1875,-38.875,0.52002,-0.0078125,-0.464844,17,28,11,9,3,-9,-19,-45,19081
-1.02098,-0.180274,1.54341,-18.6875,4.625,-24.1875,0.640137,-0.20166,-0.643066,22,-4,-25,-43,1,40,94,119,19098
-1.02098,-0.180274,1.54341,-18.6875,4.625,-24.1875,0.640137,-0.20166,-0.643066,18,-6,26,-10,-20,-32,-14,-49,19115
-1.02442,-0.206812,1.55532,37,-25.5,7.4375,0.957031,-0.0366211,-0.685059,8,-11,-82,-54,-25,-10,-53,-41,19132
-0.969555,-0.218173,1.69242,107.063,-116.25,151.75,0.820801,0.502441,0.106934,-55,20,44,-105,27,-6,54,17,19191
-0.92874,-0.203536,1.76156,158.438,-133.25,146.75,1.2749,0.529785,0.646484,-35,1,-15,-91,32,-29,36,-54,19208
-0.882539,-0.189662,1.83569,174,-139.375,160.125,1.02979,1.60205,1.64258,-11,-17,-113,-106,-21,14,-62,-58,19225
-0.859579,-0.170979,1.92041,109.25,-148.625,194.875,0.702148,1.42188,2.36475,18,-29,-55,23,-72,-54,75,70,19242
-0.833905,-0.156434,2.00586,113.5,-153.375,190.938,0.561523,1.19971,2.91553,11,2,-36,97,4,32,-33,-102,19259
-0.833905,-0.156434,2.00586,113.5,-153.375,190.938,0.561523,1.19971,2.91553,23,9,-37,5,-32,-43,7,-71,19276
-0.80797,-0.14328,2.08984,110.25,-148.438,190.063,0.765137,1.14404,2.57129,18,10,21,-58,12,16,40,-2,19293
-0.8033,-0.129942,2.15675,39.3125,-110.875,159,0.754883,1.17773,2.22363,18,10,21,-58,12,16,40,-2,19311
-0.80634,-0.115888,2.21245,11,-86.125,139.063,0.605469,0.723633,1.92969,-42,-18,3,32,5,-31,1,41,19329
-0.806547,-0.105089,2.25433,12.3125,-64.9375,104.625,0.246094,0.739746,1.55713,-22,-19,-26,66,-17,-16,-1,35,19345
-0.806547,-0.105089,2.25433,12.3125,-64.9375,104.625,0.246094,0.739746,1.55713,34,14,28,55,8,1,35,-27,19362
-0.764942,-0.0745296,2.32825,-10.6875,-62.8125,98.4375,-0.319336,0.53125,0.880371,-87,0,22,-13,0,11,72,26,19379
-0.764942,-0.0745296,2.32825,-10.6875,-62.8125,98.4375,-0.319336,0.53125,0.880371,20,-3,20,6,20,0,-36,0,19397
-0.757686,-0.0579627,2.36709,-17.9375,-70.75,90.4375,-0.505371,0.383301,0.583984,40,10,30,8,14,12,-1,-13,19414
-0.755157,-0.0411928,2.40523,-10.9375,-72.9375,82.4375,-0.631348,0.185547,0.325195,40,10,30,8,14,12,-1,-13,19432
-0.751971,-0.0298982,2.43765,3.625,-68.1875,63.8125,-0.553223,0.0488281,0.144043,47,8,18,-11,-5,7,73,64,19450
-0.76268,0.0559889,2.44191,4.375,36,-69.6875,-1.14844,-0.231445,0.117676,28,-6,13,-48,16,4,-46,16,19549
-0.759,0.048781,2.40167,12.75,51.75,-110.063,-1.06006,-0.0507813,0.347168,-26,-2,23,23,1,25,15,-28,19566
-0.759,0.048781,2.40167,12.75,51.75,-110.063,-1.06006,-0.0507813,0.347168,78,9,-19,41,35,-4,87,35,19583
-0.759,0.048781,2.40167,12.75,51.75,-110.063,-1.06006,-0.0507813,0.347168,-16,-8,-12,-5,-23,0,-26,-17,19600
-0.756256,0.0224912,2.29117,4.8125,74.75,-156.563,-0.547852,1.10254,1.90723,-30,-14,-95,1,-7,-20,-67,-54,19618
-0.75303,0.00132835,2.22438,11.625,86.9375,-181.125,0.506348,1.65088,2.6792,-36,-5,24,-2,14,-4,35,15,19636
-0.762199,-0.015304,2.14839,-27.9375,115.188,-190.938,1.47559,2.28809,3.12988,-34,5,-29,-79,-75,-7,10,5,19654
-0.762199,-0.015304,2.14839,-27.9375,115.188,-190.938,1.47559,2.28809,3.12988,-32,-1,33,12,6,-8,10,-16,19671
-0.844109,-0.0526883,1.9694,-157.5,157.625,-211.25,1.29785,1.7207,2.3042,42,2,0,-18,-19,35,-15,-38,19688
-0.886814,-0.0717953,1.87904,-138.25,161.313,-209.25,0.959961,1.1875,1.82715,27,2,19,3,2,18,29,54,19705
-0.920461,-0.0888124,1.79728,-115.438,153.5,-183,0.787109,1.01611,1.30811,79,-5,7,59,-6,-31,42,8,19721
-0.949313,-0.110081,1.72277,-123.875,140.688,-163.375,0.710938,0.733887,0.9375,-2,-6,0,-15,11,3,23,7,19739
-0.949313,-0.110081,1.72277,-123.875,140.688,-163.375,0.710938,0.733887,0.9375,-66,4,-14,-19,-24,0,-58,-33,19756
-0.975526,-0.130933,1.66105,-108.375,115.875,-138.938,0.674316,0.45166,0.566406,9,2,13,50,22,3,37,-32,19773
-0.995853,-0.151006,1.61395,-81.9375,85.25,-111.875,0.631836,0.348633,0.138672,-54,3,5,-5,9,-1,27,-40,19789
-1.0144,-0.179573,1.57866,-66.0625,64.125,-86.0625,0.590332,0.250488,-0.206543,-23,5,0,12,21,-13,5,23,19807
-1.09348,-0.276697,1.54697,-15.6875,-5.125,10.875,0.993164,0.265137,-0.619141,-12,9,-2,-37,-38,-4,-20,-30,19893
-1.10742,-0.292613,1.56446,-10.4375,-25.875,45.875,0.969727,0.404297,-0.478516,5,-1,-2,53,31,3,-57,-87,19909
-1.11717,-0.300525,1.59831,8.375,-55.0625,93,1.09326,0.384766,-0.344727,-22,9,2,4,-27,1,73,33,19927
-1.11717,-0.300525,1.59831,8.375,-55.0625,93,1.09326,0.384766,-0.344727,18,-6,-8,11,-13,-1,-76,-52,19944
-1.12211,-0.281592,1.64129,20.1875,-74.75,117.125,1.0376,0.309082,-0.117676,-60,1,23,-34,-11,-24,-76,6,19961
-1.12366,-0.259238,1.69634,26.1875,-105.25,138.625,0.871582,0.52002,0.498047,-58,-1,25,35,-9,-10,10,25,19978
-1.11427,-0.227133,1.77793,83.375,-164.188,182,0.864258,0.918945,1.44482,42,-18,19,-13,-23,18,77,62,19996
-1.11427,-0.227133,1.77793,83.375,-164.188,182,0.864258,0.918945,1.44482,-94,9,-67,-72,-16,9,13,5,20013
-1.04601,-0.161444,1.99819,175.688,-239.625,233.938,1.15576,1.354,2.80225,7,-6,-51,-68,-26,1,1,14,20030
-1.0066,-0.136332,2.11583,163.125,-248.125,234.25,1.22119,1.37354,2.87646,12,0,-21,-26,9,11,44,36,20047
-0.983139,-0.119877,2.21335,102.938,-207.125,190.75,1.1665,1.20215,2.56201,-44,-7,0,23,-23,-22,-35,-55,20065
-0.972724,-0.110553,2.28906,54.4375,-164,142.438,0.866699,1.04004,2.26123,24,-10,15,-2,-13,-7,43,33,20082
-0.972724,-0.110553,2.28906,54.4375,-164,142.438,0.866699,1.04004,2.26123,-3,3,33,30,15,-18,-32,-23,20098
-0.962296,-0.103789,2.34903,48.5,-129.563,113.063,0.330078,0.95459,1.86963,32,2,1,1,-13,16,68,35,20115
-0.94888,-0.0929246,2.40286,53.375,-107.938,113.875,-0.165527,0.836914,1.43115,-9,0,11,15,-4,0,-43,-25,20133
-0.929108,-0.0739634,2.45334,49.125,-89.375,124.25,-0.361328,0.51416,1.05518,-16,-10,7,5,26,6,-19,-9,20149
-0.868642,0.082284,2.60023,6.625,-18.375,24.5,-1.16406,-0.260742,0.165527,44,-3,1,6,16,-28,-18,-1,20245
-0.881559,0.108668,2.59617,-23.3125,0.75,-14.875,-1.2793,-0.315918,0.0185547,-53,-5,-8,-6,3,14,29,-30,20262
-0.881559,0.108668,2.59617,-23.3125,0.75,-14.875,-1.2793,-0.315918,0.0185547,-15,12,11,17,-8,-17,-67,5,20279
-0.905692,0.127615,2.57216,-49.125,30.875,-68.3125,-1.31738,-0.338379,0.0249023,4,8,10,5,7,2,7,6,20297
-0.929078,0.115427,2.53025,-53,60.75,-117.125,-1.25732,-0.17627,0.131836,-35,-5,-23,-24,16,11,68,26,20315
-0.946358,0.0947536,2.47842,-39.125,73.1875,-150.438,-1.10791,0.0649414,0.293945,-2,-7,0,3,2,5,35,-56,20332
-0.96147,0.0685737,2.4145,-42,98.5625,-178.938,-0.833008,0.435547,0.641113,8,-9,-5,-39,0,33,33,2,20349
-0.976951,0.0329737,2.34172,-33.875,114.188,-202.125,-0.485352,1.27051,1.74805,9,2,57,-23,-19,-34,-47,-10,20366
-0.990066,-0.00245863,2.26678,-34.25,122.313,-203.375,0.318848,2.0918,2.76416,-12,-2,36,46,12,7,18,-12,20383
-0.990066,-0.00245863,2.26678,-34.25,122.313,-203.375,0.318848,2.0918,2.76416,-114,-18,-100,6,-31,-6,-1,-15,20400
-1.0141,-0.02933,2.18727,-72.75,150.688,-187.75,1.74072,2.55127,3.5498,6,-22,22,16,-21,-7,15,-2,20417
-1.05032,-0.0473829,2.10733,-112.25,170,-162.063,2.11328,1.96484,2.8623,-100,15,40,76,-4,6,-54,21,20435
-1.05032,-0.0473829,2.10733,-112.25,170,-162.063,2.11328,1.96484,2.8623,26,0,12,12,-3,-3,48,5,20453
-1.10418,-0.0927315,1.92247,-89.0625,208.25,-169.25,1.20313,1.0459,1.74756,-6,-5,-25,-6,8,-3,-7,8,20469
-1.12662,-0.113605,1.83328,-90.4375,202.313,-165.688,0.927246,0.794922,1.3208,29,7,1,-34,11,48,-13,9,20485
-1.12662,-0.113605,1.83328,-90.4375,202.313,-165.688,0.927246,0.794922,1.3208,27,17,-4,-16,-26,-28,-4,-3,20502
-1.18809,-0.258261,1.60254,-36.0625,44.0625,-40.9375,0.77832,0.151367,-0.313477,-26,9,7,21,-2,-13,14,-9,20586
-1.20504,-0.277822,1.59695,-26.5,20.9375,-7.6875,0.811035,0.00976563,-0.426758,5,-9,16,55,-4,25,8,8,20603
-1.20504,-0.277822,1.59695,-26.5,20.9375,-7.6875,0.811035,0.00976563,-0.426758,-14,-18,-20,-34,7,-5,72,28,20620
-1.22427,-0.294592,1.60461,-14.8125,-4.9375,17.6875,0.90332,-0.0214844,-0.543945,-4,10,4,10,10,-3,45,6,20637
-1.24214,-0.308427,1.62172,-9.6875,-28.3125,36,0.894043,0.112305,-0.483398,-7,16,2,-14,9,8,25,28,20654
-1.26101,-0.314841,1.65035,-15.125,-54.125,70.4375,0.915039,0.302246,-0.333984,5,-2,-9,-9,-14,-15,-53,-24,20672
-1.27408,-0.29314,1.69127,-0.1875,-82.1875,109.313,0.968262,0.276367,-0.245605,-34,-6,3,-1,-11,-12,34,23,20690
-1.27408,-0.29314,1.69127,-0.1875,-82.1875,109.313,0.968262,0.276367,-0.245605,2,-10,-18,11,21,-5,-7,-22,20707
-1.28134,-0.266222,1.74045,16.6875,-102.813,129.875,0.973633,0.289063,-0.0146484,47,-20,-25,-35,-12,-14,-87,-5,20723
-1.27895,-0.235766,1.79916,33.9375,-130.063,147.563,0.941406,0.645996,0.685059,44,7,-6,16,4,9,7,29,20740
-1.26824,-0.192548,1.88257,81.4375,-187.188,186.938,0.922363,1.1792,1.71094,13,3,0,-39,-10,-2,-34,31,20757
-1.26824,-0.192548,1.88257,81.4375,-187.188,186.938,0.922363,1.1792,1.71094,-79,-4,-1,-12,-23,8,4,-48,20774
-1.26824,-0.192548,1.88257,81.4375,-187.188,186.938,0.922363,1.1792,1.71094,42,2,-20,31,-18,-11,24,-9,20792
-1.15223,-0.0563367,2.19634,149.813,-237.438,216.875,1.28467,1.27686,2.70605,12,-18,-54,-22,-6,-14,-40,-27,20809
-1.15223,-0.0563367,2.19634,149.813,-237.438,216.875,1.28467,1.27686,2.70605,7,9,8,-27,5,5,19,7,20826
-1.15223,-0.0563367,2.19634,149.813,-237.438,216.875,1.28467,1.27686,2.70605,-51,10,-10,3,-6,-7,-46,-25,20843
-1.04521,0.0432603,2.50642,49,-102.875,126.813,-0.405762,0.42041,1.0166,14,14,24,21,18,7,27,7,20908
-1.02356,0.0696908,2.55549,41.5625,-86.3125,127.813,-0.551758,0.257324,0.716797,5,-6,4,45,26,2,23,4,20925
-1.02356,0.0696908,2.55549,41.5625,-86.3125,127.813,-0.551758,0.257324,0.716797,-4,-15,-1,-30,-9,12,26,-12,20942
-1.00744,0.0948239,2.5931,30.0625,-59.4375,107.313,-0.72168,-0.0258789,0.506836,4,11,-4,-2,5,6,-14,7,20960
-0.989706,0.132713,2.61962,23.9375,-39.0625,74.6875,-1.00879,-0.0683594,0.378418,4,11,-4,-2,5,6,-14,7,20977
-0.981564,0.169284,2.6347,15.125,-21.6875,44.25,-1.20361,-0.174316,0.158691,-12,7,1,10,-26,-20,-33,-21,20994
-0.987561,0.201233,2.63305,-9.6875,6.5625,3.6875,-1.28125,-0.205566,0.0131836,13,-3,4,1,3,-3,75,57,21010
-0.987561,0.201233,2.63305,-9.6875,6.5625,3.6875,-1.28125,-0.205566,0.0131836,18,-11,-1,-15,11,5,6,-1,21027
-1.02436,0.226718,2.58445,-32.8125,43.6875,-92.75,-1.09668,-0.214844,0.0737305,12,13,9,2,-21,-4,-23,11,21045
-1.02436,0.226718,2.58445,-32.8125,43.6875,-92.75,-1.09668,-0.214844,0.0737305,31,12,-29,-27,0,10,6,28,21062
-1.04139,0.204667,2.54273,-27.625,60.75,-128.125,-0.946777,0.0288086,0.264648,-25,-11,16,9,-2,1,2,-22,21079
-1.05802,0.175919,2.49338,-28.875,74.125,-153.25,-0.821289,0.207031,0.40625,9,-13,-30,-51,5,9,2,2,21096
-1.07066,0.140766,2.43432,-30.5625,96.25,-177.813,-0.515625,0.586426,1.04736,-21,-9,2,20,1,8,19,-12,21113
-1.08669,0.0977169,2.36689,-23,110.563,-199.25,-0.164063,1.35742,2.05566,-8,0,-24,-14,-34,-17,59,6,21130
-1.10561,0.0492469,2.29235,-38.1875,126.063,-221.188,0.544434,1.74268,2.604,17,6,30,44,24,16,-19,-6,21148
-1.14207,0.0015384,2.20494,-98.3125,167,-231.625,1.38037,2.22314,2.93506,0,5,-16,-4,-5,-17,14,-7,21166
-1.27656,-0.140555,1.93173,-141.688,201.188,-207.25,1.20801,1.27148,2.01318,8,14,4,-24,-8,-2,-15,10,21241
-1.30009,-0.185094,1.84901,-105.813,189.188,-187.813,0.992188,1.06396,1.521,-7,2,-1,6,1,5,-41,3,21258
-1.31726,-0.221879,1.77605,-91.5625,170.25,-154.875,0.898438,0.812988,0.896973,14,-1,-4,11,21,-3,2,-1,21275
-1.32426,-0.261331,1.71235,-72.6875,145.813,-136.875,0.896484,0.402344,0.478516,7,-7,-19,4,32,-9,-8,8,21293
-1.32662,-0.295966,1.66702,-45.8125,99.5625,-113.313,0.716797,0.370605,0.125488,-24,11,-11,-21,-28,-8,14,-15,21310
-1.32882,-0.334506,1.63998,-21.125,60.875,-71.9375,0.761719,0.213379,-0.185059,15,-12,-6,-29,-18,2,-23,-11,21327
-1.33935,-0.365924,1.62601,-20.5,35.9375,-48.75,0.713379,0.147949,-0.402832,-8,-13,3,2,-20,7,4,8,21344
-1.33935,-0.365924,1.62601,-20.5,35.9375,-48.75,0.713379,0.147949,-0.402832,-41,6,-5,-10,3,10,-3,-1,21361
-1.35372,-0.388377,1.62412,-15.125,11.8125,-19.125,0.681641,0.0844727,-0.469238,-12,-2,4,14,44,15,5,6,21378
-1.37038,-0.40485,1.63459,-2.4375,-10.8125,13.375,0.825684,0.0927734,-0.560547,-12,-2,4,14,44,15,5,6,21395
-1.38432,-0.417243,1.65337,14.25,-28.3125,38.75,0.976074,0.118164,-0.555176,37,-22,4,1,-13,-15,1,14,21412
-1.38432,-0.417243,1.65337,14.25,-28.3125,38.75,0.976074,0.118164,-0.555176,20,-1,5,7,16,-8,7,0,21429
-1.39778,-0.42097,1.67784,8.75,-43.8125,69.75,0.935059,0.397461,-0.39502,8,10,19,47,-8,-27,-2,5,21446
-1.39778,-0.42097,1.67784,8.75,-43.8125,69.75,0.935059,0.397461,-0.39502,-28,2,47,43,15,-8,-26,-41,21464
-1.41839,-0.35308,1.75438,13.3125,-91.8125,145.125,0.914063,0.32666,-0.00927734,-80,-8,-45,-44,-4,1,46,1,21482
-1.41839,-0.35308,1.75438,13.3125,-91.8125,145.125,0.914063,0.32666,-0.00927734,34,-17,22,91,3,-2,30,30,21499
-1.2565,-0.0756034,2.16401,178.5,-222.625,217.875,1.28564,1.40234,2.71094,-5,0,-30,24,-4,3,-29,7,21572
-1.22599,-0.039611,2.23677,99.4375,-163.375,164.625,1.01953,1.42969,2.36719,-13,-4,25,-18,3,7,-11,-12,21589
-1.21412,-0.0135047,2.29199,38.125,-123.25,124.563,0.682129,1.17383,2.14551,38,7,5,-1,-4,10,7,7,21607
-1.21412,-0.0135047,2.29199,38.125,-123.25,124.563,0.682129,1.17383,2.14551,-31,1,-16,7,34,4,56,16,21624
-1.17983,0.0313567,2.37882,54.375,-85.5625,107.688,-0.258789,0.92627,1.36182,-5,-15,1,1,-8,-4,-6,-4,21641
-1.17983,0.0313567,2.37882,54.375,-85.5625,107.688,-0.258789,0.92627,1.36182,40,-15,-17,1,34,0,-25,29,21658
-1.15296,0.0609185,2.41676,52.375,-67.5625,115.875,-0.22998,0.633301,0.988281,55,10,-5,-42,28,7,-5,33,21675
-1.131,0.0897952,2.44798,41.875,-48.0625,106.75,-0.308105,0.42334,0.715332,-41,6,-6,19,25,1,-47,35,21693
-1.1128,0.120222,2.47314,35.5,-29.4375,101.563,-0.489258,0.237793,0.483887,-26,1,-15,-11,10,14,27,21,21710
-1.09312,0.162056,2.49387,26.75,-15.6875,93.6875,-0.641113,0.104492,0.296875,-33,-7,-9,-12,-1,-10,-34,-18,21727
-1.09312,0.162056,2.49387,26.75,-15.6875,93.6875,-0.641113,0.104492,0.296875,32,-15,7,27,14,-11,-7,0,21745
-1.08339,0.206061,2.50763,18.3125,-0.9375,80.625,-0.844727,-0.129883,0.114258,21,8,21,7,11,5,-4,-17,21762
-1.08339,0.206061,2.50763,18.3125,-0.9375,80.625,-0.844727,-0.129883,0.114258,-44,6,6,3,-25,16,-31,-23,21779
-1.08123,0.24873,2.51323,10.125,11.25,58.125,-1.0459,-0.303223,0.0395508,4,-11,11,17,-6,-7,15,6,21797
-1.08688,0.28386,2.51145,-4,14.6875,23.375,-1.20361,-0.43457,0.0488281,40,-1,0,-13,-2,24,77,45,21813
-1.08688,0.28386,2.51145,-4,14.6875,23.375,-1.20361,-0.43457,0.0488281,36,-2,-4,8,8,5,8,-8,21831
-1.14888,0.152137,2.32676,-46.75,94.875,-206.188,0.370117,1.56592,2.14014,-8,10,26,0,4,3,6,14,21920
-1.18805,0.0959846,2.25152,-85.75,133.938,-231.813,1.0249,2.01611,2.63623,-3,0,-14,-17,10,11,6,9,21936
-1.18805,0.0959846,2.25152,-85.75,133.938,-231.813,1.0249,2.01611,2.63623,-6,-4,10,33,2,1,35,-2,21954
-1.23575,0.0406367,2.17574,-121.625,147.25,-224.75,1.40137,2.23975,2.6958,-25,2,-11,-9,-7,11,29,10,21971
-1.29194,-0.00967989,2.09893,-157.563,166.313,-204.063,1.54297,1.89014,2.33447,-26,12,-11,11,-9,-9,-42,-9,21988
-1.29194,-0.00967989,2.09893,-157.563,166.313,-204.063,1.54297,1.89014,2.33447,38,17,-8,-5,-57,-21,-8,-21,22005
-1.40621,-0.150863,1.88868,-105.563,155.938,-149.938,0.989746,0.967285,0.996094,-43,-9,-10,5,29,-8,35,19,22023
-1.40621,-0.150863,1.88868,-105.563,155.938,-149.938,0.989746,0.967285,0.996094,4,-20,-9,12,10,7,63,-30,22040
-1.42643,-0.195624,1.83357,-94.4375,135.188,-133.75,0.896484,0.576172,0.514648,-20,-3,-15,-14,-22,-11,-23,7,22057
-1.44385,-0.236255,1.78929,-80.4375,108,-117.813,0.758789,0.362793,0.160156,28,17,-2,-17,11,16,19,14,22074
-1.46067,-0.282534,1.75927,-60.1875,75.75,-92.375,0.691895,0.213379,-0.162109,35,-7,-3,2,22,-6,-23,-21,22091
-1.48055,-0.321699,1.74188,-48,47.6875,-71.5,0.653809,0.119141,-0.375,10,-22,0,19,26,-23,-44,-22,22109
-1.48055,-0.321699,1.74188,-48,47.6875,-71.5,0.653809,0.119141,-0.375,1,11,-2,15,11,-16,17,28,22127
-1.50372,-0.352659,1.73598,-37.3125,24.4375,-46.375,0.644531,0.0893555,-0.535156,35,5,2,-10,0,12,5,27,22143
-1.52768,-0.37618,1.74124,-22.0625,1.0625,-18.8125,0.730957,0.027832,-0.641602,3,3,-7,-41,-2,2,7,15,22160
-1.55155,-0.391866,1.75648,-7.5,-22.4375,11.5625,0.844727,0.0415039,-0.705566,-12,2,-1,-31,-1,-1,-47,0,22176
-1.60494,-0.313222,1.88926,26.875,-113.875,135.938,0.998047,0.416992,0.408203,-39,-12,-30,-79,12,12,-22,-6,22267
-1.58716,-0.255669,1.94082,92.375,-146.188,161.438,1.05957,0.914551,1.14893,8,0,12,-55,-1,8,33,23,22284
-1.55979,-0.18434,2.00378,117.938,-176.438,203.875,1.08496,1.35791,2.01416,-12,20,13,18,17,8,50,37,22301
-1.52578,-0.108981,2.07352,126.438,-191.875,221.438,0.981445,1.19678,2.53467,-15,-16,-19,-16,4,8,-1,-19,22318
-1.4783,-0.0412939,2.14998,152.813,-204.875,208.563,1.0791,1.27539,2.79736,9,-7,-7,-7,-25,18,-51,-9,22336
-1.43393,0.0111401,2.21665,129.813,-172.688,171.313,1.1333,1.09521,2.38135,-18,18,29,29,9,-14,-29,-5,22354
-1.41237,0.0513184,2.26869,57.25,-130.813,135.625,0.819824,1.14795,2.12695,37,7,5,13,-6,-3,6,10,22371
-1.39422,0.0836306,2.31347,43,-110.875,112.688,0.390137,0.817383,1.83008,-33,-23,6,12,-3,-5,-67,-23,22388
-1.36703,0.113024,2.35427,66.375,-98.375,104.688,-0.0712891,0.838379,1.41309,-47,5,-12,14,-2,8,11,-15,22406
-1.36703,0.113024,2.35427,66.375,-98.375,104.688,-0.0712891,0.838379,1.41309,-5,8,-4,34,-3,3,35,-4,22422
-1.32818,0.145828,2.39412,76.5625,-88.25,110.188,-0.271484,0.629883,1.07227,30,-3,-3,-15,-6,6,-24,22,22440
-1.29069,0.178254,2.43049,75.5,-74.625,109.75,-0.305664,0.457031,0.804688,7,-9,-3,-26,-18,7,9,21,22456
-1.29069,0.178254,2.43049,75.5,-74.625,109.75,-0.305664,0.457031,0.804688,-65,4,-9,13,36,11,3,-48,22473
-1.23108,0.248298,2.48852,38.25,-41.9375,90.3125,-0.585938,-0.0214844,0.525879,1,6,-5,-18,11,-2,26,1,22491
-1.20324,0.279388,2.5072,48,-26.8125,62.875,-0.680664,-0.206055,0.370117,7,-12,25,80,14,-5,-73,-68,22507
-1.18282,0.30465,2.51577,45.8125,-10.875,31.3125,-0.817383,-0.296875,0.21582,-8,-6,-10,3,-15,-26,-6,-27,22524
-1.16917,0.321852,2.45853,46.1875,32,-116.5,-0.931641,-0.0800781,0.168945,52,-16,-36,62,-71,5,-6,-58,22609
-1.16917,0.321852,2.45853,46.1875,32,-116.5,-0.931641,-0.0800781,0.168945,36,9,5,-16,-10,-15,-14,52,22626
-1.20168,0.280218,2.39991,-53.1875,105.188,-176.188,-0.26416,0.334961,0.526855,-1,1,-34,-9,-29,-2,-33,-27,22643
-1.25216,0.228912,2.32785,-92.8125,138.563,-206,-0.666016,0.760254,1.22217,1,9,66,58,21,4,26,24,22660
-1.29113,0.169974,2.25771,-72,138.688,-219.438,-0.53125,1.68799,2.11621,-110,-28,-25,-76,-7,-3,-50,-11,22677
-1.32699,0.108897,2.19477,-77.6875,127.125,-215.375,0.549316,2.07861,2.89697,-33,-16,-109,-49,-4,-12,18,0,22694
-1.37963,0.05764,2.13344,-136.188,139.625,-181.063,1.78516,2.52979,3.06738,35,31,-6,61,48,-13,35,5,22711
-1.43793,-0.00294567,2.06466,-161.563,166.625,-203.438,1.67871,1.93652,2.521,-19,-4,8,7,-17,5,-54,-57,22728
-1.48569,-0.0638022,1.99427,-143.688,181.625,-195.313,1.30176,1.48193,2.01172,-18,-8,7,17,8,10,38,1,22745
-1.51831,-0.123664,1.92866,-111.188,175,-184.188,1.05762,1.20166,1.53418,20,-8,35,37,2,5,4,-29,22762
-1.51831,-0.123664,1.92866,-111.188,175,-184.188,1.05762,1.20166,1.53418,-4,8,-2,15,-1,-18,11,14,22779
-1.5466,-0.175606,1.87332,-104.625,150.688,-154.688,1.02588,0.880371,0.965332,0,-4,-8,-28,-31,-23,-116,14,22797
-1.56352,-0.228027,1.83077,-79.4375,116.375,-132.875,0.994629,0.661133,0.419434,14,-3,2,-9,-4,1,-43,-15,22815
-1.57338,-0.268737,1.80295,-47.875,76.8125,-100.813,0.826172,0.519531,0.0107422,3,1,4,-5,52,20,67,127,22833
-1.58616,-0.310466,1.78821,-34.3125,45.5625,-63.1875,0.753906,0.330566,-0.208008,36,3,17,37,1,3,44,34,22850
-1.58616,-0.310466,1.78821,-34.3125,45.5625,-63.1875,0.753906,0.330566,-0.208008,24,7,-11,9,18,4,54,-8,22867
-1.66447,-0.3846,1.83885,-14.6875,-54.8125,65.625,0.822266,0.239746,-0.355469,19,12,-16,-25,5,8,34,46,22941
-1.66447,-0.3846,1.83885,-14.6875,-54.8125,65.625,0.822266,0.239746,-0.355469,19,-9,7,31,23,0,25,-4,22958
-1.67455,-0.35025,1.86739,4,-85.75,105.125,0.862793,0.155762,-0.211914,-39,-14,-23,-50,-42,-12,-41,-44,22974
-1.67181,-0.306399,1.90192,41.0625,-107.125,131.563,0.948242,0.097168,-0.097168,36,23,48,37,32,17,38,54,22991
-1.6658,-0.256994,1.93948,40.625,-120.563,148,0.955566,0.442383,0.42334,-33,-6,-1,-29,-3,-1,-37,-6,23007
-1.65947,-0.188843,1.98824,49.0625,-153.625,182.188,0.8125,0.857422,1.42627,-30,8,23,0,-22,-16,-32,-27,23025
-1.65947,-0.188843,1.98824,49.0625,-153.625,182.188,0.8125,0.857422,1.42627,13,4,-11,-24,-7,7,-10,-11,23041
-1.63161,-0.103266,2.05717,108.5,-213.438,230.063,0.919922,0.985352,2.16992,4,-9,-38,47,-32,-12,-4,-4,23058
-1.57956,-0.0172815,2.13255,162,-224.75,238.813,1.25342,1.20215,2.45801,-3,-24,-45,23,-30,2,-53,-1,23073
-1.57956,-0.0172815,2.13255,162,-224.75,238.813,1.25342,1.20215,2.45801,-22,16,90,68,22,-31,-78,-125,23091
-1.49814,0.131235,2.26441,64.25,-150,202.563,1.2373,1.23486,2.44043,-22,5,-5,30,3,-1,-6,-6,23109
-1.48081,0.183329,2.30778,30.125,-110.25,158.938,0.789551,0.903809,2.14404,22,-19,-22,-16,2,4,21,33,23125
-1.45655,0.223814,2.34171,49.625,-83.0625,125,0.314941,0.848633,1.74365,30,2,-12,-42,-61,-6,32,16,23142
-1.45655,0.223814,2.34171,49.625,-83.0625,125,0.314941,0.848633,1.74365,25,9,-19,-10,2,0,6,32,23160
-1.43203,0.262309,2.37084,50.5625,-66.3125,119.375,-0.0834961,0.780273,1.33447,-1,0,-5,6,-8,6,7,1,23177
-1.40726,0.304312,2.39836,31.375,-53,122.688,-0.293457,0.574219,0.975098,1,-1,-12,-7,11,1,4,4,23194
-1.33794,0.423532,2.45395,27,-5.8125,66.375,-0.661133,0.097168,0.20459,-13,-3,-18,6,7,8,-58,-12,23244
-1.33096,0.456551,2.45502,13.125,9.5625,40.3125,-0.849609,0.0195313,0.0893555,-1,-6,2,1,11,8,6,-4,23261
-1.33096,0.456551,2.45502,13.125,9.5625,40.3125,-0.849609,0.0195313,0.0893555,-67,1,-6,34,16,-25,17,-9,23278
-1.33252,0.485484,2.4513,0.0625,14,17.4375,-1.07373,-0.097168,0.0234375,-14,7,-10,0,4,-15,3,7,23295
-1.34109,0.503274,2.43977,-2.8125,23.375,-12.8125,-1.09473,-0.287109,-0.0405273,-14,7,-10,0,4,-15,3,7,23312
-1.35077,0.507635,2.41813,8.875,39.75,-53.375,-1.06201,-0.296875,-0.0493164,6,-22,-4,7,-12,-9,-20,21,23329
-1.35077,0.507635,2.41813,8.875,39.75,-53.375,-1.06201,-0.296875,-0.0493164,-9,13,-1,-10,0,12,-30,-14,23347
-1.36933,0.444421,2.3646,6.375,46.125,-135.438,-1.02783,0.0146484,0.399414,-36,6,-10,24,-4,-23,30,-29,23364
-1.36703,0.395325,2.34028,18.3125,38.125,-165.875,-0.81543,0.424805,0.960938,39,-10,-51,19,19,7,-35,-13,23382
-1.36703,0.395325,2.34028,18.3125,38.125,-165.875,-0.81543,0.424805,0.960938,-29,8,73,36,-1,-14,-3,37,23399
-1.3605,0.334053,2.3137,45.9375,33.8125,-186.625,-0.414063,1.27734,1.88428,-29,8,73,36,-1,-14,-3,37,23416
-1.3585,0.258382,2.27642,37.25,54.375,-233.563,0.842285,1.8335,2.71094,24,5,52,-65,-12,-1,-30,-10,23432
-1.3585,0.258382,2.27642,37.25,54.375,-233.563,0.842285,1.8335,2.71094,-28,-13,-9,14,-5,8,-29,-23,23448
-1.38463,0.176263,2.2219,-41.5625,102.938,-260.875,1.81787,2.55957,3.06396,-1,-3,-8,26,9,19,18,-1,23466
-1.44464,0.0895667,2.15566,-146.375,147.75,-275,1.70361,2.37744,2.7749,16,-1,-18,5,-19,-10,39,21,23484
-1.54783,-0.0739407,2.02276,-123.063,171.875,-234.563,1.08691,1.40723,1.71094,-4,16,3,2,-43,-18,5,18,23501
-1.65927,-0.32436,1.82369,-77.1875,103.813,-118.063,0.770508,0.389648,-0.0498047,-20,6,-14,3,5,4,22,-9,23606
-1.67569,-0.37504,1.80329,-38.625,73.8125,-85.125,0.776855,0.195313,-0.415527,-9,15,-5,-2,-14,-11,1,19,23623
-1.69242,-0.414924,1.79015,-26.0625,56,-55,0.783203,0.214844,-0.541992,8,-11,-4,-22,3,9,12,15,23641
-1.70939,-0.441933,1.78572,-15.75,31.9375,-21.0625,0.825684,0.111816,-0.594727,8,-11,6,9,10,5,-20,-40,23658
-1.72574,-0.458237,1.79131,-2.8125,2.75,6.875,0.873535,0.0478516,-0.59668,-8,1,-4,5,-4,0,3,5,23675
-1.74028,-0.46704,1.80466,6.3125,-24.125,29.0625,0.902832,0.13916,-0.484375,12,-1,-3,3,16,-1,-24,7,23692
-1.75547,-0.465591,1.82475,4,-51.4375,58.625,0.869141,0.345215,-0.302246,-20,-9,-10,-19,-6,2,-19,-5,23708
-1.76325,-0.429699,1.84963,11.375,-84.0625,105.25,0.905762,0.327148,-0.143555,-30,-20,6,-5,-13,6,18,-21,23725
-1.76863,-0.38385,1.88093,18.6875,-110.25,130.313,1.01074,0.262695,0.117676,10,1,15,7,0,-2,4,-19,23742
-1.76863,-0.38385,1.88093,18.6875,-110.25,130.313,1.01074,0.262695,0.117676,-1,6,-32,0,18,0,-3,-20,23759
-1.76542,-0.334298,1.91757,34.625,-132.625,139,1.01367,0.544434,0.817383,5,6,36,25,9,14,21,19,23776
-1.74937,-0.264272,1.96621,87.25,-168.125,172.625,0.863281,1.07959,1.70654,-22,-5,13,-49,21,-6,-35,-33,23793
-1.71526,-0.178673,2.03188,138.875,-220.875,212.375,0.849609,1.24902,2.22412,28,-7,37,65,19,8,71,27,23810
-1.67286,-0.0864332,2.10069,147.563,-226.875,238.625,1.10742,1.53906,2.73486,17,-4,-13,-19,-24,-1,27,23,23828
-1.67286,-0.0864332,2.10069,147.563,-226.875,238.625,1.10742,1.53906,2.73486,-26,-3,-98,-54,-18,1,-15,-22,23845
-1.60745,0.058011,2.22756,73.25,-164.875,169.188,1.08594,1.24023,2.32422,4,-10,-56,16,-8,-5,57,17,23863
-1.48891,0.264087,2.39964,39.9375,-69.3125,96.5,-0.573242,0.275879,0.59082,19,-2,20,6,3,6,-26,-1,23968
-1.45787,0.309906,2.4232,41.375,-48.1875,85.9375,-0.72168,0.160645,0.425293,-24,-2,-19,-30,-10,-3,-2,10,23985
-1.45787,0.309906,2.4232,41.375,-48.1875,85.9375,-0.72168,0.160645,0.425293,-8,-4,7,18,15,-1,3,2,24001
-1.43532,0.356858,2.44113,31.4375,-33.0625,80.5,-0.912598,0.0131836,0.255371,13,11,-1,-20,-2,-3,35,-15,24018
-1.42191,0.39868,2.45134,21.5,-16.75,57.625,-1.11426,-0.240723,0.136719,-2,7,4,8,18,11,23,12,24035
-1.41549,0.430487,2.45012,20.75,5.625,19.1875,-1.30273,-0.398438,0.0444336,0,-9,-13,-1,-8,-14,63,-8,24051
-1.42072,0.450047,2.43453,3.8125,37.75,-20.625,-1.2876,-0.356445,0.0512695,-22,-10,14,12,18,-7,37,31,24068
-1.42072,0.450047,2.43453,3.8125,37.75,-20.625,-1.2876,-0.356445,0.0512695,-47,9,-12,-11,1,-8,-37,-21,24085
-1.43103,0.452795,2.41031,-10.1875,58.1875,-68,-1.20117,-0.248535,0.192383,-8,16,30,10,-7,-3,19,-26,24103
-1.44666,0.42196,2.37933,-12.75,69.0625,-113.563,-1.01318,-0.0834961,0.382324,-30,-12,-91,-38,-20,-10,-74,-94,24120
-1.45473,0.378806,2.34508,3.5625,77.8125,-149.313,-0.932129,0.178223,0.690918,-24,-8,-18,58,-1,22,58,34,24137
-1.46262,0.321896,2.30188,19.625,97.25,-175.188,-0.685547,0.730957,1.16309,45,-13,-91,-73,-18,-16,-5,8,24155
-1.47579,0.255824,2.25496,0.3125,109.125,-201.375,-0.106445,1.65088,2.18408,35,5,40,116,86,-16,8,28,24171
-1.49983,0.177832,2.20572,-38.375,118.75,-234.25,0.936035,2.04932,2.8374,-16,-8,58,2,-11,-4,-57,-23,24187
-1.49983,0.177832,2.20572,-38.375,118.75,-234.25,0.936035,2.04932,2.8374,-60,-11,-94,-38,-18,-7,7,-27,24204
-1.58644,0.0136501,2.08534,-127.375,176.313,-239.875,1.53613,2.59912,2.54688,26,-5,27,-30,-24,13,16,11,24220
-1.67076,-0.126398,1.96528,-109,180.625,-181.563,1.09375,1.15723,1.32764,13,-8,2,-10,-30,12,9,8,24278
-1.69348,-0.188146,1.91296,-88.5625,166.563,-159.375,0.79541,0.939453,0.902344,31,6,33,12,-9,-4,-2,15,24295
-1.71464,-0.242261,1.86915,-94.125,139,-122.5,0.753418,0.577637,0.515137,33,-4,6,-28,-24,-15,-8,16,24311
-1.73527,-0.286489,1.83793,-85.875,101.875,-98.375,0.720215,0.355957,0.274902,-2,-25,2,2,10,2,-9,-3,24328
-1.74849,-0.330969,1.81956,-54.625,62.5625,-69.625,0.661621,0.239258,0.0561523,-13,-5,-2,-7,-12,-11,27,19,24345
-1.74849,-0.330969,1.81956,-54.625,62.5625,-69.625,0.661621,0.239258,0.0561523,-35,-2,-24,-53,5,8,13,6,24362
-1.76221,-0.363393,1.81454,-32.8125,26.0625,-42.5625,0.655762,0.190918,-0.141113,15,-10,15,8,-2,-5,8,0,24380
-1.7797,-0.384717,1.81926,-26.5,-1.4375,-19.8125,0.657715,0.0473633,-0.286621,8,-10,-3,-9,2,1,4,-3,24397
-1.79813,-0.398815,1.83149,-15,-22.75,-1.9375,0.724121,-0.0195313,-0.397949,-4,16,12,-6,10,23,-14,-13,24414
-1.82041,-0.407013,1.84779,-15.6875,-35.4375,18.375,0.814453,0.0258789,-0.481934,11,-10,10,36,37,5,41,5,24430
-1.84443,-0.408657,1.8658,-19.625,-46.3125,37.9375,0.816406,0.167969,-0.429199,-6,-6,-7,-9,-4,-1,27,1,24447
-1.86367,-0.399039,1.88657,-8.625,-66.8125,70.1875,0.825195,0.321777,-0.295898,10,-10,10,58,21,0,8,15,24466
-1.86367,-0.399039,1.88657,-8.625,-66.8125,70.1875,0.825195,0.321777,-0.295898,-40,12,9,17,-8,1,-12,4,24482
-1.86684,-0.360129,1.90789,17.625,-90.25,105.438,0.90625,0.242676,-0.191895,4,-5,84,37,18,3,-6,-17,24499
-1.86423,-0.31385,1.93136,28.875,-104.563,125.563,0.973145,0.332031,0.136719,-25,-16,-17,-3,-2,-9,-20,-18,24517
-1.85475,-0.256501,1.95902,38.3125,-128.063,152.313,0.86377,0.714355,0.888672,2,-8,6,-10,13,0,19,-3,24534
-1.6944,0.100898,2.18008,110.313,-200.125,212.313,1.3252,1.3833,2.604,1,-29,-106,-27,2,12,3,7,24605
-1.6944,0.100898,2.18008,110.313,-200.125,212.313,1.3252,1.3833,2.604,-18,-1,-7,5,-5,-19,-12,-3,24622
