roll,pitch,yaw, gyro_x, gyro_y, gyro_z, accel_x, accel_y, accel_z, EMG0, EMG1, EMG2, EMG3, EMG4, EMG5, EMG6, EMG7, time
0.129942,-0.800942,-2.4401,11.875,-19.75,11.875,-0.959961,-0.414063,0.147461,0,0,0,0,0,0,0,0,418
0.102156,-0.777868,-2.43393,-44.375,15.6875,-12.4375,-0.925293,-0.459961,0.139648,0,0,0,0,0,0,0,0,435
0.0724042,-0.74521,-2.43335,-62.8125,39.8125,-22.9375,-0.796387,-0.412598,0.290039,0,0,0,0,0,0,0,0,452
0.0724042,-0.74521,-2.43335,-62.8125,39.8125,-22.9375,-0.796387,-0.412598,0.290039,0,0,0,0,0,0,0,0,469
0.0408929,-0.666645,-2.46192,-56.1875,67.5,-53.125,-0.765137,-0.216797,0.626953,0,0,0,0,0,0,0,0,487
0.0408929,-0.666645,-2.46192,-56.1875,67.5,-53.125,-0.765137,-0.216797,0.626953,0,0,0,0,0,0,0,0,504
0.0403598,-0.624768,-2.49273,-53.4375,100.813,-75.5,-0.848633,-0.074707,0.430664,0,0,0,0,0,0,0,0,521
0.043361,-0.568554,-2.53243,-61.1875,149.313,-96.625,0.0708008,0.434082,0.958984,0,0,0,0,0,0,0,0,538
0.0442726,-0.509424,-2.5717,-55.375,164.938,-104.25,-0.598633,1.18799,2.43848,0,0,0,0,0,0,0,0,555
0.0442726,-0.509424,-2.5717,-55.375,164.938,-104.25,-0.598633,1.18799,2.43848,0,0,0,0,0,0,0,0,572
0.0507003,-0.468229,-2.6116,-35.3125,112.875,-106.313,1.21826,1.43555,2.9668,0,0,0,0,0,0,0,0,590
0.0256958,-0.417236,-2.64097,-107.5,143.125,-81.6875,1.50537,1.20068,2.46533,-18,6,-2,5,-15,4,-29,-4,607
0.0256958,-0.417236,-2.64097,-107.5,143.125,-81.6875,1.50537,1.20068,2.46533,3,13,-2,-11,4,5,-61,-3,624
0.00967278,-0.35987,-2.69244,-101.813,162,-139.375,2.104,0.822266,2.71094,4,4,-20,-1,0,-6,-13,1,642
0.00928392,-0.295908,-2.74888,-68,184.625,-150.063,0.64209,0.912109,1.66016,12,-7,1,4,8,-11,34,8,660
0.00928392,-0.295908,-2.74888,-68,184.625,-150.063,0.64209,0.912109,1.66016,6,-6,11,0,1,5,7,7,678
-0.0501179,-0.145951,-2.88296,-75.625,126,-101,0.817383,0.372559,0.979004,-7,-1,0,-1,-6,-7,-78,-5,744
-0.0560342,-0.116082,-2.9193,-34.9375,101.688,-97.3125,0.6875,0.234863,0.618164,-7,-1,0,-1,-6,-7,-78,-5,761
-0.0552368,-0.102024,-2.95254,-24.5625,81.3125,-88.6875,0.549316,0.229492,0.327148,-5,-5,1,-1,-7,2,36,0,778
-0.0547999,-0.0941875,-2.97832,-18.5,60.25,-69,0.49707,0.182129,0.0839844,-9,-10,3,4,-3,-8,42,-3,795
-0.055158,-0.0917984,-2.99739,-12.25,45.0625,-51.5,0.506348,0.103027,-0.123047,-1,-2,-8,1,7,-3,43,4,812
-0.0547317,-0.0948413,-3.01055,-4.375,33.8125,-35.4375,0.563965,0.0517578,-0.321289,2,-1,-4,0,2,0,12,2,830
-0.050251,-0.10059,-3.0193,10.25,29.375,-23.625,0.61377,0.0283203,-0.452637,2,1,-6,0,0,1,10,2,847
-0.050251,-0.10059,-3.0193,10.25,29.375,-23.625,0.61377,0.0283203,-0.452637,5,2,-4,-1,3,-2,10,2,864
-0.0436128,-0.108302,-3.02398,14,24.25,-11.875,0.620605,0.0766602,-0.48877,3,1,-2,-2,-3,-2,4,2,882
-0.0197549,-0.136939,-3.01106,18.6875,-10.625,35.6875,0.588379,0.376465,-0.295898,2,5,3,4,0,2,2,-3,899
-0.0109609,-0.164878,-2.98546,8.375,-37.375,76.3125,0.622559,0.405762,-0.183105,3,-9,-2,-3,1,1,0,-2,916
-0.0109609,-0.164878,-2.98546,8.375,-37.375,76.3125,0.622559,0.405762,-0.183105,1,1,-3,-7,-6,2,-14,-5,934
-0.0280159,-0.183242,-2.94589,-35.9375,-44.5625,111.875,0.668457,0.375,0.225586,-9,-16,-29,-27,-5,1,14,-2,950
-0.0280159,-0.183242,-2.94589,-35.9375,-44.5625,111.875,0.668457,0.375,0.225586,-10,-26,-34,-49,-11,-10,37,1,967
-0.0505656,-0.210545,-2.9006,-46.875,-75.625,126.063,0.664551,0.390137,1.0293,18,60,47,77,8,20,-1,-1,983
-0.0417235,-0.259987,-2.84926,47.3125,-142.5,139.563,0.785645,0.640137,1.62842,-6,2,-48,2,-10,-2,-52,-2,1000
0.0544244,-0.452646,-2.68955,128.188,-185.375,143.938,0.838379,0.916016,2.58057,22,8,1,-20,12,-5,5,9,1062
0.0778382,-0.514277,-2.64234,130,-168.563,131.313,0.859863,0.549316,2.30176,22,8,1,-20,12,-5,5,9,1078
0.0778382,-0.514277,-2.64234,130,-168.563,131.313,0.859863,0.549316,2.30176,8,6,18,-12,-3,9,-4,-2,1096
0.0972295,-0.564308,-2.60652,101.438,-144,105.25,0.716309,0.680176,2.04639,-8,-3,19,-34,-13,9,-66,-7,1112
0.0972295,-0.564308,-2.60652,101.438,-144,105.25,0.716309,0.680176,2.04639,-24,18,29,-1,-20,16,-28,-10,1130
0.0890204,-0.683501,-2.50622,31.375,-112.25,85.875,-0.12793,0.280762,1.25049,-1,-27,-2,-15,-5,-6,-2,-3,1148
0.0890204,-0.683501,-2.50622,31.375,-112.25,85.875,-0.12793,0.280762,1.25049,0,-1,5,6,0,-8,10,1,1164
0.0833698,-0.71851,-2.47802,35.5625,-109.625,71.75,-0.288574,0.118652,0.993164,8,14,0,-4,11,4,61,2,1181
0.0833698,-0.71851,-2.47802,35.5625,-109.625,71.75,-0.288574,0.118652,0.993164,7,-3,-1,-2,4,-2,16,4,1197
0.0859329,-0.784157,-2.43261,53.125,-100.688,51.3125,-0.641113,-0.147949,0.487305,4,5,2,-5,7,3,15,3,1215
0.0859329,-0.784157,-2.43261,53.125,-100.688,51.3125,-0.641113,-0.147949,0.487305,0,-7,2,4,-1,0,-65,-2,1232
0.0761166,-0.795254,-2.41053,34,-78.375,33.9375,-0.770508,-0.325195,0.291504,-5,-9,-3,3,-5,-7,22,1,1249
0.0761166,-0.795254,-2.41053,34,-78.375,33.9375,-0.770508,-0.325195,0.291504,-1,0,-7,-7,0,0,-5,0,1266
0.0334766,-0.775583,-2.40225,-45.875,-4.6875,-30.5,-1.08301,-0.530762,0.0766602,2,-4,-1,-2,0,5,1,-1,1283
0.0135596,-0.745152,-2.4183,-65.125,28.4375,-56.4375,-1.04443,-0.480957,0.120117,0,-1,-8,-11,-1,-5,4,-1,1300
0.0135596,-0.745152,-2.4183,-65.125,28.4375,-56.4375,-1.04443,-0.480957,0.120117,2,16,-5,-8,-7,-3,4,-1,1317
0.0104387,-0.613399,-2.53082,-74.875,81.3125,-94.125,-0.469238,0.250977,0.831055,-4,2,66,24,-4,1,-47,-5,1381
0.0101995,-0.520132,-2.6192,-71.125,125.5,-107.125,0.43457,1.43018,2.66992,-16,-18,-93,-26,-9,-1,-33,-2,1399
-0.0101243,-0.478762,-2.65641,-109.313,118.375,-93.5625,1.53223,1.46533,2.73535,-10,-5,-15,-18,-3,-6,-14,-4,1415
-0.0101243,-0.478762,-2.65641,-109.313,118.375,-93.5625,1.53223,1.46533,2.73535,-3,-3,-21,-7,-4,-3,21,7,1432
-0.074861,-0.369968,-2.7492,-135.188,173.813,-139.25,1.37207,0.878418,2.27734,4,-3,-17,14,5,-11,15,10,1449
-0.074861,-0.369968,-2.7492,-135.188,173.813,-139.25,1.37207,0.878418,2.27734,5,-6,-2,4,3,3,7,3,1466
-0.098611,-0.311749,-2.7998,-116.375,178.188,-121.688,1.19873,0.939453,1.88232,0,-8,-6,-6,-4,4,-26,0,1483
-0.098611,-0.311749,-2.7998,-116.375,178.188,-121.688,1.19873,0.939453,1.88232,-6,8,-7,1,-5,6,-5,1,1499
-0.15074,-0.218477,-2.8857,-113.313,144.813,-80.25,0.727539,0.569824,1.17822,-9,7,6,4,-1,3,-9,-8,1516
-0.167915,-0.185886,-2.91517,-74.375,114.75,-63.5,0.715332,0.350586,0.81543,0,7,7,0,-1,4,-11,-6,1534
-0.167915,-0.185886,-2.91517,-74.375,114.75,-63.5,0.715332,0.350586,0.81543,-1,3,0,-5,-5,3,-5,-2,1550
-0.180583,-0.160747,-2.96466,-44.125,65.9375,-48.8125,0.378418,0.151855,0.136719,-4,-6,-1,1,-1,-2,4,-3,1567
-0.180583,-0.160747,-2.96466,-44.125,65.9375,-48.8125,0.378418,0.151855,0.136719,0,3,-3,-1,2,-7,8,-2,1584
-0.193214,-0.152951,-2.98001,-47,53.3125,-33.5,0.338379,0.0776367,-0.0825195,-2,-3,-2,4,4,-5,9,3,1601
-0.193214,-0.152951,-2.98001,-47,53.3125,-33.5,0.338379,0.0776367,-0.0825195,2,5,1,1,3,10,9,0,1618
-0.227133,-0.151832,-2.99368,-45.3125,27.3125,-5.0625,0.404297,0.0410156,-0.342285,-1,-20,-3,-3,1,-9,20,2,1634
-0.270268,-0.18119,-2.96971,-40.9375,-5.5,42.25,0.515137,0.15332,-0.120605,3,-7,1,2,-2,-2,-12,0,1703
-0.284987,-0.193175,-2.94936,-38.875,-3.5,60.1875,0.680176,0.140137,-0.10791,-4,-3,-14,-18,-6,-4,-9,-1,1721
-0.284987,-0.193175,-2.94936,-38.875,-3.5,60.1875,0.680176,0.140137,-0.10791,-1,-13,-4,-11,4,3,2,-2,1738
-0.296469,-0.20719,-2.90684,-10.375,6.1875,70.375,0.688477,0.183105,0.740723,-5,-7,-6,-8,-3,0,20,-2,1755
-0.273786,-0.212472,-2.87826,5.4375,-9.4375,97.8125,0.760742,0.726074,1.46631,0,15,-9,-2,-4,-1,2,-4,1772
-0.273786,-0.212472,-2.87826,5.4375,-9.4375,97.8125,0.760742,0.726074,1.46631,-4,2,-10,-9,-5,-4,-1,-1,1788
-0.243851,-0.252169,-2.79025,81.5625,-88.875,105.063,0.774414,0.046875,2.16992,3,16,1,-1,4,-1,3,-2,1805
-0.243851,-0.252169,-2.79025,81.5625,-88.875,105.063,0.774414,0.046875,2.16992,-5,-9,-3,-6,-3,-6,-7,0,1823
-0.219186,-0.285063,-2.74406,105.625,-120.938,102.688,0.724609,0.503906,2.22754,3,-31,5,3,-3,1,-37,-7,1840
-0.219186,-0.285063,-2.74406,105.625,-120.938,102.688,0.724609,0.503906,2.22754,-10,16,17,2,-9,2,-65,-9,1857
-0.171523,-0.360714,-2.6534,84.75,-131.813,97.625,0.297852,0.153809,1.9458,-9,3,3,5,-2,-6,39,-3,1874
-0.160736,-0.399635,-2.61153,69.0625,-141.188,92.0625,-0.00292969,0.10498,1.87842,-1,8,-6,1,7,-3,32,5,1892
-0.160736,-0.399635,-2.61153,69.0625,-141.188,92.0625,-0.00292969,0.10498,1.87842,-1,4,-4,0,7,-5,32,5,1909
-0.149842,-0.439879,-2.57095,75.1875,-144.875,86.4375,-0.156738,-0.00927734,1.63281,10,15,-1,2,0,-11,27,4,1926
-0.149842,-0.439879,-2.57095,75.1875,-144.875,86.4375,-0.156738,-0.00927734,1.63281,2,-10,0,-3,0,7,-9,0,1943
-0.149842,-0.439879,-2.57095,75.1875,-144.875,86.4375,-0.156738,-0.00927734,1.63281,-5,7,4,-1,0,15,-20,-5,1959
-0.125197,-0.557414,-2.43066,24.875,-53.9375,25.875,-0.583008,-0.214355,0.489258,-2,-11,1,0,0,1,-2,4,2018
-0.134365,-0.545426,-2.42286,-1.1875,-17.75,8.6875,-0.643066,-0.272949,0.333984,3,-21,-5,-4,-4,-2,-5,-7,2035
-0.134365,-0.545426,-2.42286,-1.1875,-17.75,8.6875,-0.643066,-0.272949,0.333984,-3,2,4,-1,1,-13,-37,2,2052
-0.148955,-0.487827,-2.43172,-12.5,50.375,-22.25,-0.769531,-0.318848,0.169922,-1,-4,-6,-7,-33,-50,-1,-5,2070
-0.148955,-0.487827,-2.43172,-12.5,50.375,-22.25,-0.769531,-0.318848,0.169922,2,-42,-7,-4,0,-5,45,17,2087
-0.157987,-0.440952,-2.44991,-44,85.0625,-36.4375,-0.747559,-0.140137,0.306152,-1,-14,-5,-1,9,16,35,2,2104
-0.157987,-0.440952,-2.44991,-44,85.0625,-36.4375,-0.747559,-0.140137,0.306152,-3,-10,-6,-2,-1,1,18,5,2121
-0.190632,-0.354455,-2.50573,-84.6875,135.625,-56.9375,-0.412109,-0.123535,0.819824,-2,8,-3,-1,0,0,18,-2,2138
-0.203311,-0.302455,-2.54268,-82,151.938,-68.125,-0.294434,0.32373,1.8208,1,-4,-4,3,-4,-4,23,-3,2154
-0.203311,-0.302455,-2.54268,-82,151.938,-68.125,-0.294434,0.32373,1.8208,1,31,20,11,2,9,36,-4,2172
-0.215686,-0.264839,-2.57409,-60.5625,123.313,-62.125,0.251465,0.6875,2.29346,-3,14,1,-3,-6,2,15,-4,2188
-0.220274,-0.230627,-2.60142,-47.5,117.5,-47.6875,0.84375,0.430176,2.16504,-3,14,1,-3,-6,2,15,-4,2206
-0.225217,-0.197062,-2.63867,-53.75,123,-75.8125,0.768555,0.560059,2.08252,-1,-18,-5,-1,2,7,-24,-3,2223
-0.227074,-0.164209,-2.67708,-43,118.688,-80.4375,0.506348,0.585449,2.05029,-3,13,-13,-8,-3,-5,-6,-1,2241
-0.227074,-0.164209,-2.67708,-43,118.688,-80.4375,0.506348,0.585449,2.05029,1,-10,-4,-2,1,-6,-12,2,2258
-0.2301,-0.133533,-2.71062,-39.125,113.438,-68.5625,0.625977,0.543945,1.88672,3,-1,-1,5,1,2,-14,-1,2276
-0.192652,-0.0851174,-2.8116,-7.8125,51.375,-41.125,0.319336,0.109863,0.662109,-2,13,3,2,5,5,-23,-16,2338
-0.19203,-0.0808991,-2.82313,-12.5,39.75,-24.9375,0.354004,0.078125,0.469238,-5,-7,-6,-6,-3,-3,-29,-3,2355
-0.189731,-0.082381,-2.82873,-2.25,23.625,-11.25,0.388184,0.0566406,0.286133,1,7,3,2,-3,-4,18,10,2372
-0.189731,-0.082381,-2.82873,-2.25,23.625,-11.25,0.388184,0.0566406,0.286133,1,0,-1,-3,2,6,30,-10,2390
-0.182609,-0.0878538,-2.83196,20.8125,13,-6.8125,0.402832,-0.0302734,0.0737305,1,-2,-1,-1,-1,-8,-56,2,2407
-0.172291,-0.0932861,-2.83214,32.9375,15.125,1.5625,0.438477,-0.0341797,-0.109375,0,-2,-1,-2,-1,2,57,1,2424
-0.161898,-0.0998207,-2.82857,24.4375,16.625,13.6875,0.531738,0.118164,-0.150879,-2,-19,-4,-3,-3,0,-2,-3,2441
-0.153897,-0.109211,-2.82072,9.125,8.875,25.8125,0.579102,0.245117,-0.0400391,0,8,-1,-3,-3,-5,13,-1,2457
-0.150185,-0.125572,-2.80714,1.6875,-13.125,38.75,0.584473,0.186035,0.0566406,-4,-3,-3,-4,-4,-2,-9,4,2474
-0.146396,-0.150103,-2.78844,17.6875,-30.625,49.1875,0.705078,-0.00878906,0.0727539,-2,-3,1,-1,1,-5,4,-1,2491
-0.146396,-0.150103,-2.78844,17.6875,-30.625,49.1875,0.705078,-0.00878906,0.0727539,0,-3,-4,-2,-2,-4,-18,-2,2508
-0.137828,-0.1765,-2.76842,36.5625,-29.25,52.5,0.828613,-0.078125,0.187012,-3,0,0,-2,-1,-1,-7,1,2525
-0.099939,-0.211346,-2.7247,16.9375,-27.0625,80,0.669434,0.712891,1.48926,-4,-24,-4,1,0,-1,20,1,2542
-0.099939,-0.211346,-2.7247,16.9375,-27.0625,80,0.669434,0.712891,1.48926,0,4,2,1,2,-2,11,-1,2559
-0.099939,-0.211346,-2.7247,16.9375,-27.0625,80,0.669434,0.712891,1.48926,-4,-23,-20,-13,-10,-6,-15,-5,2577
-0.0725386,-0.290052,-2.64231,82.5625,-140.063,108.375,0.64209,0.120117,2.21143,4,-17,-17,-17,0,-6,20,0,2593
-0.0725386,-0.290052,-2.64231,82.5625,-140.063,108.375,0.64209,0.120117,2.21143,25,-5,0,2,6,8,16,4,2664
0.00884525,-0.483395,-2.52662,53.375,-136.5,52.5,0.339844,0.482422,1.6543,17,-23,0,-13,-6,7,-10,-4,2682
0.0186378,-0.527824,-2.50674,49.5,-136.938,55,0.129395,0.442871,1.41406,-18,-7,2,-15,-11,7,-66,-15,2698
0.0186378,-0.527824,-2.50674,49.5,-136.938,55,0.129395,0.442871,1.41406,-8,11,-2,3,-3,-2,10,0,2716
0.0234254,-0.613816,-2.45728,42.25,-135.75,67.5625,-0.181152,0.253906,1.00537,1,-3,5,5,1,-4,26,2,2733
0.0234254,-0.613816,-2.45728,42.25,-135.75,67.5625,-0.181152,0.253906,1.00537,7,0,-3,0,2,-2,29,2,2750
0.0306914,-0.658878,-2.4321,63.1875,-140.813,62.1875,-0.297363,0.0688477,0.866211,0,8,5,-5,3,5,7,0,2767
0.0306914,-0.658878,-2.4321,63.1875,-140.813,62.1875,-0.297363,0.0688477,0.866211,-3,0,6,1,-2,3,-25,-1,2784
0.0695063,-0.736066,-2.39084,97.5,-105.313,44.6875,-0.442871,-0.200195,0.442871,-4,-5,-4,-4,2,7,11,-6,2801
0.0728628,-0.746472,-2.37353,56.375,-76.1875,29.8125,-0.625977,-0.229492,0.383301,-3,-10,-1,-1,-8,-16,9,1,2818
0.0728628,-0.746472,-2.37353,56.375,-76.1875,29.8125,-0.625977,-0.229492,0.383301,0,-6,-5,-2,2,3,21,0,2834
0.0522128,-0.734412,-2.36906,-24.4375,-28.0625,-21.125,-0.830566,-0.317383,0.362305,4,6,-9,-6,-2,-8,15,2,2852
0.0522128,-0.734412,-2.36906,-24.4375,-28.0625,-21.125,-0.830566,-0.317383,0.362305,-1,-5,-6,-14,-1,7,8,-1,2870
0.0435686,-0.713643,-2.38577,-39.0625,-0.3125,-51.1875,-0.845703,-0.333496,0.322754,9,36,-3,12,-8,-18,-1,-3,2887
0.0435686,-0.713643,-2.38577,-39.0625,-0.3125,-51.1875,-0.845703,-0.333496,0.322754,-1,-4,38,-2,6,5,1,-1,2905
0.0463977,-0.639454,-2.45485,-53.4375,57.8125,-93.6875,-0.612305,0.00390625,0.560547,-4,-14,-27,-37,-4,-4,-9,-4,2922
0.0544966,-0.602903,-2.49905,-55.6875,81.6875,-103.625,-0.44043,0.419922,1.15967,-14,-4,-24,-37,-9,-5,32,0,2967
0.0432266,-0.545201,-2.58666,-91.875,73.6875,-120.125,0.729004,1.03809,2.45459,-27,14,16,-31,-6,3,-25,-8,2985
0.0263492,-0.505036,-2.62891,-109.125,111.75,-108.438,1.32813,1.16602,2.52539,-16,7,2,4,-9,6,-79,-12,3002
0.0263492,-0.505036,-2.62891,-109.125,111.75,-108.438,1.32813,1.16602,2.52539,17,9,2,20,11,-9,48,9,3019
0.0104795,-0.413344,-2.73323,-106.75,141.5,-133.563,1.30176,1.35742,2.02588,13,-3,-10,-27,7,-6,54,13,3035
0.0104795,-0.413344,-2.73323,-106.75,141.5,-133.563,1.30176,1.35742,2.02588,7,-13,3,-16,5,5,38,6,3052
-0.0135682,-0.366965,-2.77934,-134.5,141.563,-115.875,1.13525,0.94043,1.64307,5,-13,-19,-3,-4,5,-39,-2,3069
-0.0135682,-0.366965,-2.77934,-134.5,141.563,-115.875,1.13525,0.94043,1.64307,-5,-1,-9,-11,-10,1,-81,-4,3086
-0.0395379,-0.28247,-2.8601,-61.25,125.5,-102.313,0.653809,0.387695,0.827637,-4,13,-4,-1,-3,-6,-35,-4,3103
-0.0425473,-0.248009,-2.89693,-41.375,110.313,-95.9375,0.577148,0.289063,0.52832,-2,2,-1,-2,-1,2,16,-3,3120
-0.042524,-0.225844,-2.92972,-39.3125,96.1875,-83.3125,0.502441,0.250488,0.348145,-8,-5,-1,2,-1,2,1,-5,3138
-0.0436666,-0.210671,-2.95306,-32.25,76.125,-59.125,0.476074,0.209473,0.165039,-7,-2,5,-4,-6,-4,-3,-7,3155
-0.0452205,-0.202851,-2.9688,-22.3125,58.5,-39.625,0.496582,0.136719,-0.059082,-1,0,4,0,4,-8,-10,-1,3172
-0.0470497,-0.198898,-2.97881,-15.875,53.6875,-24.625,0.553223,0.0883789,-0.276367,0,-4,-8,-4,4,-6,31,2,3190
-0.0454858,-0.199487,-2.985,-2.8125,45.625,-14.625,0.614746,0.0751953,-0.397461,2,-2,-5,-1,3,-2,4,2,3208
-0.0400779,-0.206951,-2.98828,4.8125,31.1875,-5.9375,0.699219,0.151367,-0.410156,0,-4,-2,-1,-2,-2,-16,1,3225
-0.0291338,-0.269112,-2.95708,-5.5625,-35.6875,62.375,0.681641,0.243652,0.00439453,4,12,33,18,-1,0,17,3,3301
-0.0452974,-0.292006,-2.91806,-22.625,-60.4375,107.125,0.711914,0.397461,0.561035,2,10,41,-6,8,2,112,2,3317
-0.0517677,-0.330127,-2.87215,9,-110.75,124.25,0.778809,0.692871,1.38086,-10,-31,-30,-32,-2,-2,20,-5,3334
-0.0332394,-0.387138,-2.82621,88.5,-165.75,120.438,0.936523,0.588379,1.875,5,-10,-44,-13,-9,1,-79,-7,3350
0.00971734,-0.449742,-2.78349,172.688,-181,109.563,0.816895,0.589355,2.27295,-13,-15,91,-9,-24,8,-128,-20,3367
0.0482125,-0.514968,-2.73857,170,-183.625,119.563,0.819336,1.08838,2.32715,-47,-15,-41,-28,-9,-29,39,1,3384
0.0482125,-0.514968,-2.73857,170,-183.625,119.563,0.819336,1.08838,2.32715,41,6,-45,9,38,-13,116,30,3402
0.0602205,-0.577069,-2.69052,105.938,-171.375,127.313,0.80127,0.87793,2.21777,26,10,-17,3,2,15,-29,5,3419
0.0554821,-0.629107,-2.64716,49.875,-156.25,116.75,0.599121,0.644531,2.11572,-13,-11,5,-2,-31,-1,-116,-20,3436
0.0507186,-0.67982,-2.60588,53,-155.938,106,0.384277,0.489746,1.88525,-32,0,2,-13,-25,0,-92,-23,3453
0.0507186,-0.67982,-2.60588,53,-155.938,106,0.384277,0.489746,1.88525,-23,6,1,2,-10,4,-87,-15,3470
0.0468152,-0.72629,-2.569,52.625,-143.938,91.625,0.179688,0.42041,1.49268,-16,-2,0,10,-1,-3,-13,-8,3487
0.0376043,-0.767896,-2.53476,36.375,-131.813,81.25,-0.102539,0.376465,1.18262,-24,-39,-5,-3,2,-4,10,1,3504
0.0286102,-0.809597,-2.5003,41.75,-132.188,76.375,-0.327148,0.225586,0.907715,-12,-10,-8,13,6,-1,39,7,3521
0.0277778,-0.850696,-2.46632,69.9375,-128.875,69.1875,-0.408203,0.0214844,0.657715,14,-19,-9,-1,10,-4,52,8,3537
0.0295808,-0.888442,-2.43691,70.5,-116.188,56.125,-0.323242,-0.0908203,0.44043,10,7,-12,-6,2,1,-52,2,3555
0.018113,-0.891272,-2.40451,-1.5625,0.9375,-11.1875,-0.643555,-0.20752,0.205078,-2,9,-3,-1,-12,-14,13,0,3622
0.0222508,-0.869037,-2.41669,-3.3125,24.5,-37.1875,-0.707031,-0.270996,0.140625,0,-2,1,5,8,4,8,2,3639
0.0329773,-0.837048,-2.44282,-14.3125,49.6875,-63.9375,-0.772461,-0.26416,0.105469,4,0,-8,-9,0,-5,-3,-1,3656
0.0388244,-0.79312,-2.47712,-44.125,74.9375,-80.875,-0.828125,-0.226074,0.184082,0,-1,-6,-18,2,3,1,2,3674
0.0392173,-0.748735,-2.51881,-81.3125,111.75,-91.25,-0.568848,-0.0727539,0.422852,3,-6,1,1,-1,-2,-1,-2,3691
0.0347199,-0.687064,-2.56674,-107.375,155.688,-105.875,-0.371094,0.329102,1.11182,5,-5,-6,-7,-9,-10,5,0,3708
0.0347199,-0.687064,-2.56674,-107.375,155.688,-105.875,-0.371094,0.329102,1.11182,4,-24,-7,0,2,1,36,1,3724
0.0196522,-0.636418,-2.62182,-140.25,141.5,-128.375,-0.267578,1.07568,2.12305,-15,-3,5,-1,-9,12,-44,-14,3741
-0.0132263,-0.599295,-2.67136,-176.625,106.188,-116.188,0.5625,1.18506,3.01416,-34,39,33,11,-10,9,-98,-14,3758
-0.06552,-0.567739,-2.6864,-173.625,91.5625,-32.3125,2.11621,0.692383,2.73975,-49,54,26,-34,-19,9,-104,-17,3775
-0.06552,-0.567739,-2.6864,-173.625,91.5625,-32.3125,2.11621,0.692383,2.73975,-6,8,0,12,-7,-6,-44,-2,3792
-0.0746009,-0.530165,-2.72785,-87.875,114.438,-93.6875,1.67236,0.327148,2.49854,17,3,-12,7,20,-13,114,18,3810
-0.0580412,-0.487171,-2.78423,-31.25,132.313,-132.813,1.26855,0.90918,2.04199,17,3,-12,7,20,-13,114,18,3827
-0.0580412,-0.487171,-2.78423,-31.25,132.313,-132.813,1.26855,0.90918,2.04199,26,-4,-15,2,12,-6,68,16,3843
-0.0554231,-0.442404,-2.83885,-79.3125,139.375,-124,1.01855,0.966309,1.75195,10,-19,-6,-11,-6,10,-21,-2,3861
-0.0698772,-0.400411,-2.88646,-109.688,129.625,-110.938,0.690918,0.688477,1.45801,3,-16,5,1,-6,6,-48,-7,3878
-0.0676485,-0.311,-3.00656,-17,73.375,-52.3125,0.460449,0.217773,0.105469,-1,-3,-5,0,0,-3,30,1,3943
-0.0627503,-0.297953,-3.02518,-10.4375,68.625,-44.0625,0.394043,0.135254,-0.107422,2,-5,0,-2,-2,-2,-5,3,3961
-0.0574217,-0.288035,-3.03959,-3.375,63.125,-33.625,0.409668,0.124023,-0.266602,1,-2,-1,-4,-3,3,-10,-5,3979
-0.0505071,-0.281619,-3.0492,2.625,58.25,-20.5625,0.474609,0.164063,-0.384277,1,-5,-3,1,-1,-2,10,3,3996
-0.0417788,-0.279941,-3.05271,8.5,48.4375,-3.75,0.541992,0.227539,-0.413086,1,-5,-3,1,-1,-2,10,3,4013
-0.0417788,-0.279941,-3.05271,8.5,48.4375,-3.75,0.541992,0.227539,-0.413086,1,3,-3,2,3,0,2,-4,4030
-0.0417788,-0.279941,-3.05271,8.5,48.4375,-3.75,0.541992,0.227539,-0.413086,1,3,-3,2,3,0,2,-4,4047
-0.0343474,-0.284396,-3.04749,6.625,33.0625,21.0625,0.606445,0.297363,-0.356934,0,-5,-11,-7,1,-3,11,3,4063
-0.0326761,-0.294694,-3.02982,-6.3125,19.0625,56.875,0.683594,0.38916,-0.273926,-1,-1,-2,-6,0,-3,18,-3,4080
-0.0415306,-0.311466,-3.00039,-23.125,3.375,87.75,0.769043,0.348145,-0.211914,1,-14,5,15,6,1,10,2,4097
-0.0415306,-0.311466,-3.00039,-23.125,3.375,87.75,0.769043,0.348145,-0.211914,0,12,6,9,1,0,3,-3,4114
-0.0720352,-0.349702,-2.92796,-4.25,-52.8125,103.688,0.79834,0.364746,0.968262,-8,-1,-6,-3,3,4,-14,-1,4130
-0.0606107,-0.382259,-2.87969,66.6875,-98.0625,128.563,0.903809,0.84082,1.61963,4,-3,55,50,-19,15,-128,-18,4147
-0.0394932,-0.436071,-2.82822,119.25,-160.625,127.813,0.820801,0.672363,2.38184,-17,-5,20,-9,-23,0,-97,-19,4165
-0.0075048,-0.498586,-2.77161,164.75,-182.813,140.5,0.872559,0.719727,2.43896,-16,7,-56,-9,15,-22,127,14,4183
0.021346,-0.563433,-2.72465,150.938,-185.125,117.25,0.953125,0.59668,2.20605,41,-5,-5,21,9,8,16,11,4199
0.062846,-0.708338,-2.62483,71.125,-144,83.3125,0.211426,0.519531,1.67773,-3,4,6,5,-7,-1,-29,-8,4263
0.0612722,-0.753792,-2.59011,56.6875,-143.688,87.6875,-0.0805664,0.498047,1.42969,-21,-21,11,7,-9,-4,-32,-10,4282
0.0514862,-0.801784,-2.55055,48,-151,92.8125,-0.252441,0.374023,1.2373,-6,-5,-13,-13,-4,-20,35,6,4299
0.0437978,-0.849173,-2.50824,67,-145.813,88.9375,-0.181152,0.0488281,0.909668,12,9,-11,3,5,-10,45,7,4317
0.0434093,-0.885412,-2.46989,83.875,-111.188,74.875,-0.213379,-0.0507813,0.621582,13,3,-8,-3,3,-1,4,5,4334
0.043811,-0.898923,-2.43583,81.1875,-73.6875,59.25,-0.366699,-0.0727539,0.412598,5,4,-5,-5,2,4,3,1,4353
0.043811,-0.898923,-2.43583,81.1875,-73.6875,59.25,-0.366699,-0.0727539,0.412598,-1,7,0,0,-1,-4,-10,-3,4369
0.0376872,-0.898276,-2.41056,42.875,-42.3125,42.0625,-0.619141,-0.0673828,0.367676,-1,-6,-4,-2,-1,3,3,-2,4386
0.0257698,-0.888116,-2.39479,9.625,-22.5,18.5,-0.879883,-0.181641,0.281738,-6,-4,-3,-1,0,-1,2,-3,4404
0.0257698,-0.888116,-2.39479,9.625,-22.5,18.5,-0.879883,-0.181641,0.281738,0,2,-4,-10,-10,4,4,-1,4422
-0.00103736,-0.840398,-2.39928,-37.4375,34.4375,-44.75,-0.961914,-0.500488,0.151367,3,8,-6,8,6,-12,32,0,4440
-0.00411037,-0.800116,-2.42357,-45.0625,62.8125,-63.3125,-0.836914,-0.333496,0.257324,3,5,-3,-10,-10,4,19,4,4458
0.00595597,-0.752667,-2.46224,-45.1875,77.125,-83,-0.746582,-0.0878906,0.450684,-6,35,14,0,-3,1,-9,-7,4475
0.0246288,-0.71931,-2.51194,-43.8125,78.4375,-105.313,-0.552246,0.130371,0.73584,-4,-32,-41,2,-9,0,-7,-5,4493
0.048037,-0.672779,-2.57062,-47.125,110.688,-127.75,-0.177734,0.516113,1.46875,0,7,32,-25,5,5,15,8,4510
0.048037,-0.672779,-2.57062,-47.125,110.688,-127.75,-0.177734,0.516113,1.46875,-3,-29,-20,-22,-13,-7,-21,-11,4527
0.00282661,-0.466606,-2.79197,-148.438,157.25,-144.5,1.24512,1.07373,2.30078,12,-8,-3,10,8,-3,4,6,4590
0.00282661,-0.466606,-2.79197,-148.438,157.25,-144.5,1.24512,1.07373,2.30078,7,-3,-14,5,9,-3,44,12,4607
-0.0191919,-0.407244,-2.84395,-126.188,171.375,-133.625,1.07373,1.1499,2.05273,5,-17,-10,18,7,-1,9,3,4624
-0.037322,-0.354603,-2.89137,-120.125,159.438,-114.563,0.930664,1.0332,1.75537,5,-9,-9,0,1,6,15,5,4642
-0.037322,-0.354603,-2.89137,-120.125,159.438,-114.563,0.930664,1.0332,1.75537,-1,0,5,10,-9,7,-30,0,4659
-0.037322,-0.354603,-2.89137,-120.125,159.438,-114.563,0.930664,1.0332,1.75537,-7,6,1,3,-5,-2,-21,-2,4676
-0.0686096,-0.274499,-2.95719,-68.5625,114.75,-70.6875,0.746094,0.501953,0.894531,-11,-5,0,8,0,-5,-12,3,4693
-0.0670926,-0.254951,-2.98449,-41.5625,91.375,-62.6875,0.583008,0.344238,0.526367,-1,-3,0,3,1,5,-9,-7,4710
-0.0667474,-0.235585,-3.01901,-26.9375,48.4375,-33.375,0.431152,0.200684,0.059082,0,0,-1,-2,1,-3,1,-2,4727
-0.0667474,-0.235585,-3.01901,-26.9375,48.4375,-33.375,0.431152,0.200684,0.059082,-1,-2,-5,0,2,-3,1,0,4744
-0.0695398,-0.235952,-3.02877,-21.3125,31.6875,-23.3125,0.431152,0.110352,-0.141602,2,-1,-1,-2,2,0,10,2,4762
-0.0691225,-0.242939,-3.03555,-4.5,17.25,-17.625,0.466309,0.0419922,-0.30127,2,-1,-1,-2,2,0,10,2,4780
-0.0644769,-0.255734,-3.03994,10.5,4.625,-12.0625,0.502441,0.0214844,-0.424805,0,-1,-1,3,-3,-6,-5,0,4797
-0.0548775,-0.273736,-3.04156,21.4375,-4.3125,-3.5,0.583496,0.0976563,-0.459961,0,-8,-3,0,0,-3,-15,-3,4813
-0.0548775,-0.273736,-3.04156,21.4375,-4.3125,-3.5,0.583496,0.0976563,-0.459961,1,6,-10,-2,-2,-1,2,-1,4831
-0.0392761,-0.316686,-3.0245,5.3125,-26.5625,44.0625,0.616699,0.404785,-0.171387,-1,-13,-2,2,4,-2,5,-1,4848
-0.0491913,-0.408331,-2.92243,22.0625,-80.25,114.938,0.765137,0.619629,1.05371,9,-17,11,-8,2,12,-16,3,4918
-0.041215,-0.451691,-2.87195,67.3125,-130.938,132.875,0.793457,0.924805,1.70166,13,-6,65,-44,-13,18,-107,-24,4935
-0.0215678,-0.514052,-2.81523,131.813,-183.25,138.188,0.785156,0.681152,2.20264,-8,-62,-39,-69,-36,25,-122,-22,4953
-0.000307632,-0.576591,-2.75347,152.625,-181,149.75,0.895508,0.914551,2.48779,-38,40,26,13,-16,-24,-29,-12,4970
0.0137219,-0.644739,-2.69358,138.688,-194.375,141.625,0.921387,0.616699,2.44629,3,12,23,38,43,-19,127,25,4986
0.0137219,-0.644739,-2.69358,138.688,-194.375,141.625,0.921387,0.616699,2.44629,29,-34,-28,-2,22,0,108,18,5004
0.0267593,-0.699816,-2.64643,121.5,-155.625,109.375,0.977051,0.591797,2.16699,32,4,13,9,-4,11,-74,-3,5022
0.0348599,-0.742777,-2.61438,76,-136.063,80.0625,0.650879,0.691406,1.95654,-26,46,26,9,-30,8,-122,-18,5040
0.0347037,-0.781335,-2.58315,55.125,-125.313,74.8125,0.273438,0.554688,1.66748,-38,-7,14,-11,-22,5,10,-18,5057
0.0347037,-0.781335,-2.58315,55.125,-125.313,74.8125,0.273438,0.554688,1.66748,-25,-23,7,10,-9,-2,-46,-13,5075
0.0067702,-0.848152,-2.50622,33.75,-108.125,87.625,-0.181641,0.359375,1.05127,-17,-14,-3,12,4,-7,30,1,5092
0.0067702,-0.848152,-2.50622,33.75,-108.125,87.625,-0.181641,0.359375,1.05127,15,7,-5,3,9,-6,46,8,5109
-0.012645,-0.880793,-2.45888,46,-107.75,89.75,-0.314941,0.149902,0.796387,4,16,-1,4,6,-2,30,6,5126
-0.0269029,-0.911094,-2.4119,64.125,-100.438,82.125,-0.401855,-0.00146484,0.559082,8,13,0,4,0,0,-32,3,5143
-0.0373712,-0.926724,-2.36522,80,-81,73.875,-0.393066,-0.0849609,0.321289,1,-1,-5,-5,-1,-3,-54,-2,5161
-0.0456186,-0.931229,-2.32459,73.8125,-46.9375,62.1875,-0.485352,-0.105957,0.208008,2,-6,1,7,6,4,-1,-2,5178
-0.0745583,-0.890023,-2.25839,2.625,16.0625,-6.6875,-0.812012,-0.374023,0.226563,0,13,9,15,4,2,6,-2,5233
-0.0714223,-0.858817,-2.27363,-13.125,40.5,-38.3125,-0.698242,-0.289551,0.378418,0,-10,6,5,-6,8,21,1,5250
-0.0714223,-0.858817,-2.27363,-13.125,40.5,-38.3125,-0.698242,-0.289551,0.378418,1,-15,-22,-13,0,6,4,-1,5268
-0.0341347,-0.781624,-2.35425,-32.4375,68.6875,-91.625,-0.364258,-0.00488281,0.687988,0,2,24,-38,-3,-8,0,-1,5285
-0.0341347,-0.781624,-2.35425,-32.4375,68.6875,-91.625,-0.364258,-0.00488281,0.687988,-1,6,18,-18,4,-8,16,2,5302
-0.00458481,-0.738144,-2.41595,-43.75,108.625,-119.875,-0.121094,0.481934,1.46777,0,-15,10,-30,-5,-8,21,-1,5319
0.0133591,-0.695399,-2.47982,-68.75,121.625,-138.313,0.162598,1.36182,2.24414,0,-30,-34,-11,-6,-18,17,3,5336
0.0194427,-0.652801,-2.55145,-110.688,119.313,-162.5,0.780273,1.23047,2.51123,-11,-3,-13,-8,-26,-58,8,-13,5353
-0.00519407,-0.59436,-2.61688,-180.438,166.313,-153.813,1.78125,1.38477,2.55273,6,9,6,7,8,39,-49,0,5370
-0.00519407,-0.59436,-2.61688,-180.438,166.313,-153.813,1.78125,1.38477,2.55273,-41,-16,9,9,-8,27,-111,-26,5387
-0.0314554,-0.53201,-2.6942,-193.563,182.438,-184.188,1.29688,1.00293,2.33154,15,40,-1,25,14,-6,57,10,5403
-0.0574026,-0.46265,-2.76516,-171.5,206.438,-169.938,0.863281,0.986328,2.11816,28,-5,-25,6,17,-26,118,20,5420
-0.0574026,-0.46265,-2.76516,-171.5,206.438,-169.938,0.863281,0.986328,2.11816,17,-25,-17,17,20,-5,92,19,5436
-0.0767956,-0.399646,-2.82958,-151.125,193,-146.938,0.800293,1.03125,1.75928,8,-52,-24,-9,13,6,2,4,5453
-0.0943935,-0.345993,-2.88172,-120.063,168.938,-119.25,0.69043,0.829102,1.34326,-9,-37,1,2,-2,12,-10,-4,5470
-0.104462,-0.304334,-2.92466,-79.75,136.813,-99.4375,0.679688,0.622559,0.915039,-4,8,4,-1,-9,1,-42,-4,5487
-0.0999061,-0.25299,-3.01659,-28.25,60.75,-55.0625,0.48291,0.303223,-0.00195313,-6,0,1,-3,-6,1,6,-3,5554
-0.0999061,-0.25299,-3.01659,-28.25,60.75,-55.0625,0.48291,0.303223,-0.00195313,0,11,1,0,2,-1,4,1,5572
-0.0884883,-0.254542,-3.04438,8.125,25.1875,-26.625,0.417969,0.108398,-0.349609,2,-1,-6,0,0,5,10,0,5590
-0.0778694,-0.266087,-3.05093,21.5,16,-15.5625,0.584473,0.104492,-0.516113,3,-1,0,0,-1,1,-16,0,5607
-0.0678014,-0.281801,-3.05092,20.4375,9,2.9375,0.664063,0.165527,-0.549805,0,5,-1,-1,4,1,-5,-1,5623
-0.0627491,-0.298175,-3.04484,3.0625,4.5,21.875,0.680664,0.275879,-0.405762,2,-2,0,4,2,-1,-6,-1,5641
-0.0598403,-0.317846,-3.02721,-3.25,-14.25,55.6875,0.621582,0.415527,-0.221191,7,4,-1,0,7,3,-11,0,5658
-0.0636195,-0.348001,-2.99417,-9.25,-47.4375,97.0625,0.67627,0.444336,-0.0415039,2,0,3,-2,0,11,-15,-1,5675
-0.0897167,-0.371345,-2.94824,-34.875,-65.8125,120.625,0.793945,0.338379,0.338379,-15,4,-3,-9,-4,-5,14,-2,5692
-0.110425,-0.404522,-2.89987,-15.5625,-104.25,122.313,0.755371,0.416016,1.28418,4,-30,-1,11,-2,5,28,2,5709
-0.110425,-0.404522,-2.89987,-15.5625,-104.25,122.313,0.755371,0.416016,1.28418,3,1,-80,80,6,3,-8,-1,5726
-0.0984313,-0.467813,-2.83516,112.625,-197.875,148.125,0.689941,0.667969,2.25342,29,34,58,112,17,46,-90,1,5743
-0.0328298,-0.551736,-2.77,279.25,-251.188,147.125,1.19092,0.422363,2.49756,-40,-1,42,-20,0,-11,-42,-14,5760
0.0349911,-0.618661,-2.726,264.063,-191.813,105.563,1.37793,1.03809,2.55859,-29,7,19,-5,17,-43,127,19,5778
0.0602998,-0.674993,-2.6928,129.813,-157.875,83.5,0.970703,1.21924,2.41797,20,6,-28,49,38,-31,127,36,5795
0.0551375,-0.716358,-2.66732,24.25,-131.75,70.625,0.558105,0.722656,2.1123,55,27,-18,-13,24,8,77,15,5812
-0.0066363,-0.849534,-2.57771,-1.5,-114.25,65.5,-0.29541,0.335449,0.963867,10,-16,-8,4,17,-8,63,8,5885
-0.0066363,-0.849534,-2.57771,-1.5,-114.25,65.5,-0.29541,0.335449,0.963867,10,0,2,10,0,-2,28,7,5903
-0.0306891,-0.882941,-2.53671,19.5,-110.313,75.4375,-0.327148,0.109863,0.719727,8,-3,-5,1,-3,4,-7,3,5919
-0.047106,-0.901049,-2.49227,54.5,-98.6875,73.125,-0.436523,-0.0625,0.47168,3,18,-2,-9,-1,-3,-9,0,5936
-0.0583887,-0.913295,-2.4474,75.0625,-79.4375,67.625,-0.560547,-0.150879,0.313477,-1,12,2,1,-2,-2,0,-2,5953
-0.0583887,-0.913295,-2.4474,75.0625,-79.4375,67.625,-0.560547,-0.150879,0.313477,1,-3,7,6,-6,-7,21,-1,5970
-0.0684519,-0.917015,-2.40598,73.5625,-51.9375,57.8125,-0.59375,-0.20752,0.227539,4,-21,-6,-8,-3,-1,2,-4,5987
-0.0684519,-0.917015,-2.40598,73.5625,-51.9375,57.8125,-0.59375,-0.20752,0.227539,-2,-7,-3,-2,-4,-9,2,-2,6005
-0.0986821,-0.88983,-2.35659,6.25,12.4375,17.8125,-0.715332,-0.326172,0.178711,7,-8,-11,-11,2,2,-11,1,6022
-0.10989,-0.86056,-2.35497,-11.875,39.875,-12.9375,-0.729492,-0.408203,0.20752,-7,3,1,-4,3,-3,7,2,6038
-0.108656,-0.823068,-2.372,-17.75,61.25,-42.75,-0.730469,-0.373047,0.313477,3,12,-11,-1,-11,-7,-4,-1,6055
-0.108656,-0.823068,-2.372,-17.75,61.25,-42.75,-0.730469,-0.373047,0.313477,-2,7,37,-8,9,7,9,3,6072
-0.0911746,-0.778864,-2.40696,-18.5625,77.6875,-65.875,-0.663086,-0.126953,0.470703,-1,-7,-29,-34,-3,-9,5,3,6090
-0.0612902,-0.726725,-2.45689,-20.9375,96.75,-89.3125,-0.508789,0.102539,0.737305,0,-16,-12,-48,-3,-5,10,2,6107
-0.0612902,-0.726725,-2.45689,-20.9375,96.75,-89.3125,-0.508789,0.102539,0.737305,-9,2,43,-8,-13,-2,-36,-4,6123
-0.00905772,-0.635265,-2.57448,-52.125,122.125,-131.375,0.163574,1.35645,2.30127,-26,46,50,42,-9,-6,-54,-8,6140
-0.0620923,-0.490384,-2.74974,-141.688,147.438,-153.625,1.27002,0.936523,2.271,10,-17,-19,-5,3,-1,21,7,6205
-0.0836491,-0.440181,-2.81191,-141.563,155.188,-148.688,1.00098,1.02637,1.95361,3,-16,-13,-6,2,1,-11,6,6223
-0.108793,-0.396059,-2.87027,-156.5,143.625,-132.563,0.837891,0.858887,1.62744,-4,-11,3,-16,-13,12,-47,-9,6240
-0.135839,-0.357474,-2.91792,-141.563,128.563,-106.688,0.67041,0.713379,1.27637,-9,-5,-10,-3,-7,5,-34,-9,6258
-0.137875,-0.335794,-2.95758,-90.0625,99.5625,-77.75,0.66748,0.566895,0.93457,-1,-13,-9,-1,-9,-2,-28,-2,6275
-0.134618,-0.32538,-2.98871,-48.6875,71.0625,-65.3125,0.62207,0.38623,0.491211,-1,3,-1,-1,6,3,11,-3,6292
-0.134618,-0.32538,-2.98871,-48.6875,71.0625,-65.3125,0.62207,0.38623,0.491211,-5,2,-1,-1,-2,-2,-13,-2,6309
-0.132515,-0.31916,-3.01315,-36.875,60.5,-52.0625,0.567383,0.304688,0.151855,-4,2,-1,-2,1,-2,7,-1,6326
-0.134562,-0.314442,-3.0304,-37.4375,54.5625,-34.75,0.517578,0.260254,-0.0639648,-2,7,3,2,4,-1,16,4,6343
-0.138113,-0.312874,-3.04162,-31.25,45.375,-20.75,0.49707,0.208008,-0.204102,1,-8,-1,0,1,-1,-2,-6,6361
-0.134557,-0.316367,-3.04799,-2.1875,33.125,-10.75,0.519043,0.148926,-0.347656,0,-4,-3,4,3,1,15,1,6378
-0.122446,-0.324427,-3.05126,27.0625,27.5,-4.0625,0.59668,0.138672,-0.500977,1,-4,-3,-5,-1,-6,-1,0,6395
-0.107492,-0.333512,-3.05096,31.5,26.8125,8,0.649902,0.229492,-0.495605,1,3,-5,-1,-1,-4,-7,0,6413
-0.107492,-0.333512,-3.05096,31.5,26.8125,8,0.649902,0.229492,-0.495605,0,4,1,1,0,2,-3,-1,6430
-0.0837656,-0.357243,-3.024,20.3125,-6.75,63.125,0.585449,0.431641,-0.185547,-7,-5,-7,-9,-6,-4,-6,-2,6448
-0.0837656,-0.357243,-3.024,20.3125,-6.75,63.125,0.585449,0.431641,-0.185547,-4,-2,18,-6,-6,-5,-9,-4,6465
-0.0839448,-0.470288,-2.83536,102.5,-150.625,142.938,0.688965,0.849121,2.13086,26,-6,-23,-24,-33,45,-124,-22,6540
-0.059161,-0.534611,-2.76854,163.375,-195.75,154.375,0.683105,0.717285,2.48291,-18,-16,23,15,-31,11,-128,-23,6557
-0.0347319,-0.606224,-2.70165,173.563,-212.625,151.5,0.866699,0.830566,2.57861,-59,3,-3,28,32,-12,109,10,6574
-0.0176486,-0.671666,-2.64635,143.5,-191.125,122.375,0.98584,0.716797,2.22461,50,32,-3,-23,45,-17,118,33,6590
-0.0176486,-0.671666,-2.64635,143.5,-191.125,122.375,0.98584,0.716797,2.22461,59,-23,-15,-7,6,34,-47,3,6608
-0.0196999,-0.725736,-2.5994,80.625,-156.563,100.125,0.723633,0.709473,2.13574,-12,16,14,12,-35,9,-128,-25,6625
-0.0255906,-0.769367,-2.56023,51.4375,-145,86.8125,0.477539,0.619629,1.98486,-39,25,7,-6,-26,12,-94,-23,6641
-0.0255906,-0.769367,-2.56023,51.4375,-145,86.8125,0.477539,0.619629,1.98486,-57,13,15,-19,-42,-16,-102,-23,6658
-0.0374911,-0.805688,-2.52005,39.9375,-125.063,84.875,0.219238,0.565918,1.6792,-15,-51,-13,-11,-4,-24,12,2,6675
-0.0580144,-0.836042,-2.47712,24.8125,-109.938,85.375,-0.0976563,0.467285,1.38086,12,-25,-10,-6,12,8,49,6,6692
-0.0777419,-0.86671,-2.4325,36.125,-109.625,81.125,-0.262207,0.271973,1.00342,17,-11,-13,-10,9,-1,23,3,6709
-0.0816587,-0.880718,-2.39727,57.25,-95.6875,67.75,-0.310547,0.151367,0.688965,6,-3,-4,6,7,5,-13,2,6725
-0.0870679,-0.891466,-2.36631,46.5625,-80.25,57.6875,-0.384277,0.120117,0.523438,0,6,-4,-7,2,-2,-22,0,6742
-0.101049,-0.898931,-2.33257,35.125,-66.375,54.375,-0.430176,-0.0297852,0.39209,-1,1,5,2,-1,5,-18,-4,6759
-0.124057,-0.899795,-2.30062,13.125,-49.6875,42.1875,-0.59375,-0.205078,0.296875,-2,2,1,-1,-4,4,26,-1,6776
-0.124057,-0.899795,-2.30062,13.125,-49.6875,42.1875,-0.59375,-0.205078,0.296875,2,10,-3,-1,2,1,4,-2,6793
-0.155824,-0.851608,-2.29371,-21.5,23.3125,-47.75,-0.891113,-0.357422,0.20166,-2,-11,-17,6,3,6,10,2,6866
-0.128677,-0.78894,-2.37471,-53.1875,62.3125,-86.8125,-0.557129,-0.03125,0.422852,2,-24,14,-10,-1,-1,-2,-2,6883
-0.128677,-0.78894,-2.37471,-53.1875,62.3125,-86.8125,-0.557129,-0.03125,0.422852,2,-13,-24,-21,1,-13,5,0,6900
-0.0987164,-0.717816,-2.49974,-81.375,124.188,-130.438,-0.280762,0.750977,1.77344,-4,-6,-52,-52,-10,-2,25,-3,6917
-0.0777329,-0.681532,-2.5707,-70.9375,117.188,-145.813,0.271973,1.35742,2.41553,6,48,30,26,16,3,-15,0,6935
-0.0751054,-0.636385,-2.63542,-106.125,140.125,-136.375,1.17969,1.36084,2.68018,-19,-14,0,-25,-3,1,-10,-1,6952
-0.0751054,-0.636385,-2.63542,-106.125,140.125,-136.375,1.17969,1.36084,2.68018,-15,-3,-19,-2,0,15,-55,-12,6969
-0.104041,-0.587727,-2.68724,-168.25,149.813,-108.875,1.63135,1.26904,2.4292,-7,-4,15,14,-12,-4,-44,-14,6987
-0.122456,-0.53383,-2.74892,-147.063,170.375,-131.375,1.20996,0.952148,2.21045,4,-12,-3,5,4,-14,70,14,7003
-0.137401,-0.478048,-2.80596,-121.938,176.688,-121,1.05273,1.04248,1.88965,6,-9,-6,15,17,-2,30,10,7020
-0.148974,-0.4273,-2.86024,-119,167.25,-108.875,0.891602,0.910645,1.56787,6,-12,8,-2,1,8,-29,1,7036
-0.163521,-0.38008,-2.90272,-104.563,155.5,-82.1875,0.748535,0.771484,1.21533,-12,2,19,-2,-12,-11,-23,-2,7053
-0.163521,-0.38008,-2.90272,-104.563,155.5,-82.1875,0.748535,0.771484,1.21533,-3,11,3,10,-1,1,-21,-6,7070
-0.17112,-0.343079,-2.9365,-67.0625,127,-66.0625,0.764648,0.54248,0.851563,3,4,-2,4,3,-1,25,2,7087
-0.165109,-0.324458,-2.96607,-38.625,99.8125,-54.4375,0.680664,0.359863,0.496094,3,-2,-5,-3,1,-3,-13,-4,7103
-0.161472,-0.310835,-2.98527,-27.5625,81.0625,-32.625,0.588867,0.291504,0.205566,2,-4,0,4,1,1,12,-1,7119
-0.162872,-0.300184,-2.99076,6.3125,34.625,16.3125,0.587402,0.0258789,-0.317383,1,-3,1,3,2,-1,-3,-1,7188
-0.156428,-0.312757,-2.98678,29.1875,16.4375,11.125,0.693359,-0.050293,-0.425781,4,4,1,3,2,5,2,2,7205
-0.146757,-0.329311,-2.98445,29.3125,7.6875,7.625,0.73584,0.0625,-0.384277,-4,-8,-8,-3,-4,-10,-6,0,7223
-0.146757,-0.329311,-2.98445,29.3125,7.6875,7.625,0.73584,0.0625,-0.384277,1,9,5,2,3,-2,20,2,7240
-0.13945,-0.346177,-2.97623,12.625,-3.125,27.8125,0.679199,0.274414,-0.198242,-1,-12,-25,-8,-4,-2,-5,-4,7257
-0.139359,-0.371477,-2.95375,3.0625,-40.375,62.5625,0.580078,0.320313,-0.116211,-4,-8,39,16,6,2,-4,-1,7273
-0.152367,-0.406489,-2.91814,-9.4375,-78.9375,88.4375,0.572754,0.155762,0.0556641,-1,-3,-15,-9,-7,3,-6,-3,7291
-0.17373,-0.436478,-2.87249,-12.3125,-98.25,107,0.638672,0.187012,0.544434,-9,12,-26,-26,2,-15,24,-2,7308
-0.173854,-0.471313,-2.82297,48.875,-119,114.938,0.819824,0.60498,1.37158,-4,9,-61,-1,-1,-4,24,4,7325
-0.17423,-0.527275,-2.75977,85.5625,-185.375,128.875,0.807129,1.00977,2.10205,2,37,-3,-43,1,9,-49,-2,7342
-0.168207,-0.592629,-2.68694,128.063,-215,142.25,0.899902,0.778809,2.44873,-16,-50,31,-34,-21,-8,-80,-10,7358
-0.168207,-0.592629,-2.68694,128.063,-215,142.25,0.899902,0.778809,2.44873,-25,39,-14,69,22,-30,103,9,7376
-0.173976,-0.653383,-2.61043,111.313,-201.875,146,1.08594,0.893066,2.4585,11,-6,-65,-13,32,-16,127,23,7393
-0.17548,-0.707307,-2.54327,117,-178.375,120.5,0.961426,0.575195,2.21582,48,-4,-5,-11,0,15,-15,5,7410
-0.180805,-0.748812,-2.48665,92.625,-138.25,98.0625,0.785156,0.756836,2.05518,22,11,23,1,-14,19,-107,-9,7427
-0.185671,-0.780029,-2.4398,66.8125,-123.5,87.8125,0.470215,0.653809,1.89209,-29,-1,19,16,-16,4,-72,-16,7444
-0.218515,-0.859321,-2.28831,67.5625,-104.688,85.25,-0.183594,0.244141,0.941406,0,-3,-8,1,7,-6,11,4,7520
-0.226624,-0.865081,-2.24099,66.4375,-90.875,86,-0.365723,0.154785,0.745117,3,-20,-5,-2,0,5,-8,0,7537
-0.244341,-0.872395,-2.18872,58.6875,-90.1875,83.625,-0.500977,0.00537109,0.490723,2,-3,-2,1,-3,1,-12,-2,7554
-0.266193,-0.874738,-2.14171,46.1875,-65.5625,65.1875,-0.523926,-0.197266,0.289063,-4,14,5,-2,-4,4,-15,-10,7571
-0.286417,-0.868626,-2.11046,19.25,-38.375,38.375,-0.685547,-0.25293,0.20166,1,-3,3,-1,-3,4,2,3,7588
-0.297545,-0.856076,-2.09782,8.6875,-14.8125,4.6875,-0.836426,-0.342285,0.140137,2,-9,-1,2,2,-4,15,1,7606
-0.297256,-0.836128,-2.10708,-6.8125,13.625,-29.25,-0.88916,-0.342285,0.139648,4,20,-6,-7,2,-6,20,-1,7622
-0.286431,-0.808921,-2.13524,-21.375,39.125,-53.3125,-0.916016,-0.223145,0.207031,-1,-1,-10,-3,-3,-2,9,4,7640
-0.286431,-0.808921,-2.13524,-21.375,39.125,-53.3125,-0.916016,-0.223145,0.207031,3,-15,-8,1,-5,-1,-4,0,7657
-0.269005,-0.77747,-2.17952,-38.875,59.8125,-77.3125,-0.813965,-0.125,0.266113,-3,22,-2,-8,1,2,-3,0,7674
-0.24428,-0.754844,-2.23899,-49.3125,79.1875,-104,-0.67041,0,0.54834,2,-23,-27,-47,1,-3,-1,0,7691
-0.209057,-0.72263,-2.30962,-43.75,104.688,-122.188,-0.448242,0.353516,1.16699,6,-13,-8,38,1,11,-16,23,7708
-0.176492,-0.692938,-2.37572,-29.6875,110.938,-125.125,-0.105469,1.20996,2.00439,-18,-13,-16,-19,-25,-16,-38,-29,7724
-0.160897,-0.664143,-2.44876,-86.625,108.938,-146.75,0.73584,1.25195,2.46289,-12,37,1,23,0,6,-25,-8,7742
-0.167508,-0.622186,-2.52004,-141.625,145.063,-141.813,1.36816,1.26855,2.76367,-6,8,34,-22,3,5,1,-3,7759
-0.167508,-0.622186,-2.52004,-141.625,145.063,-141.813,1.36816,1.26855,2.76367,-4,-13,-7,13,-5,1,-29,-11,7775
-0.202575,-0.446586,-2.77998,-135.625,154.75,-115.5,0.851074,0.617676,1.4209,-15,13,10,-3,-13,-10,-38,-6,7847
-0.215665,-0.407033,-2.83218,-109.938,142.688,-104.25,0.703125,0.45459,1.07227,-15,-13,8,2,-10,-9,-15,-9,7864
-0.223502,-0.374656,-2.87614,-80.375,122.063,-87.9375,0.669434,0.47168,0.765137,-8,-6,-5,3,2,-2,3,1,7881
-0.219086,-0.360155,-2.91112,-58.875,96.125,-60.375,0.709961,0.473145,0.428223,1,-1,-2,-5,1,-6,0,5,7898
-0.219293,-0.353401,-2.93548,-45.5,72.0625,-43.125,0.629395,0.319336,0.050293,1,5,-2,0,2,-4,20,1,7915
-0.219293,-0.353401,-2.93548,-45.5,72.0625,-43.125,0.629395,0.319336,0.050293,3,5,-5,-4,0,2,-16,-1,7932
-0.224645,-0.350808,-2.95256,-38.9375,59.25,-31.4375,0.578125,0.164551,-0.231934,0,6,-3,-1,0,2,9,-2,7949
-0.230661,-0.349879,-2.96532,-30.875,54.0625,-22.125,0.553223,0.116699,-0.392578,-2,-10,-13,-5,-2,-5,9,-2,7966
-0.233272,-0.35297,-2.97519,-19.0625,43.3125,-16.5625,0.558594,0.13623,-0.455566,4,3,3,10,0,2,11,0,7984
-0.230089,-0.362912,-2.98088,0.0625,25.3125,-8.1875,0.605469,0.174805,-0.499512,1,-8,-6,-6,-8,-2,8,3,8000
-0.223072,-0.377244,-2.97939,8.8125,10.5,11.625,0.662598,0.297852,-0.402344,2,6,-2,2,2,-2,2,3,8017
-0.213456,-0.39574,-2.96612,20.25,-13.4375,42.0625,0.65332,0.388672,-0.214844,-1,-3,-8,-14,-4,-1,2,-5,8034
-0.213456,-0.39574,-2.96612,20.25,-13.4375,42.0625,0.65332,0.388672,-0.214844,1,11,-6,-7,-5,3,-9,-6,8051
-0.208757,-0.421114,-2.93884,20.5625,-41.4375,75,0.727539,0.375977,-0.015625,11,15,11,17,11,5,-2,-4,8068
-0.210869,-0.448892,-2.90383,10.25,-57.375,93,0.858398,0.317871,0.425293,3,2,42,-3,2,-6,27,6,8086
-0.211203,-0.471617,-2.85883,42.3125,-85.1875,107.125,0.848145,0.648438,1.28223,-3,-4,15,17,5,1,24,0,8103
-0.195578,-0.572544,-2.72162,141.75,-196.813,144.5,0.786133,0.625488,2.28516,-1,-29,30,-51,-39,28,-126,-28,8172
-0.184644,-0.631877,-2.64471,156.188,-201.438,146.375,0.844727,0.65625,2.52246,-39,2,23,-2,-31,-6,-65,-21,8188
-0.183393,-0.739475,-2.51613,87.5,-165.125,107,0.583984,0.789063,2.16992,99,-19,-13,-3,23,15,32,12,8206
-0.201129,-0.779847,-2.45915,48.8125,-155.25,102.5,0.380859,0.671387,1.91553,-27,18,35,-9,-30,25,-118,-19,8224
-0.228045,-0.814081,-2.39966,34.75,-139.875,102.313,0.0810547,0.521484,1.54297,-4,-18,3,2,-16,-30,-28,-17,8240
-0.261166,-0.841871,-2.33339,37.25,-126.313,109.875,-0.17627,0.422852,1.23926,-17,-10,-1,-4,-11,-9,13,-11,8257
-0.261166,-0.841871,-2.33339,37.25,-126.313,109.875,-0.17627,0.422852,1.23926,-26,-12,-3,0,9,-3,52,11,8274
-0.291197,-0.865711,-2.26256,60.875,-117.313,112.625,-0.214844,0.284668,0.976563,12,4,-2,4,6,-10,33,13,8291
-0.317505,-0.882639,-2.19346,71.625,-96.4375,108.063,-0.135742,0.186523,0.760742,12,4,-2,4,6,-10,33,13,8308
-0.329403,-0.883311,-2.13655,79.5,-74.5625,99.8125,-0.230469,0.117676,0.5625,18,9,0,1,-4,1,10,3,8325
-0.329403,-0.883311,-2.13655,79.5,-74.5625,99.8125,-0.230469,0.117676,0.5625,3,-13,-7,-2,-4,-5,-3,-3,8342
-0.342868,-0.877554,-2.08383,73.625,-51.9375,89.0625,-0.427734,-0.00537109,0.343262,5,61,13,2,-14,-26,-10,-1,8359
-0.342868,-0.877554,-2.08383,73.625,-51.9375,89.0625,-0.427734,-0.00537109,0.343262,3,6,-2,-1,3,5,-22,-1,8376
-0.37002,-0.844455,-2.01406,33.375,-4.1875,35.3125,-0.806152,-0.328125,0.137695,0,12,3,5,3,-8,21,0,8393
-0.36345,-0.815368,-2.02074,13.1875,34.75,-9.6875,-0.80127,-0.284668,0.258301,-4,-29,-8,2,3,4,25,-3,8410
-0.337546,-0.779963,-2.05365,2.8125,61.5,-44,-0.74707,-0.100098,0.45752,6,49,-13,-13,3,7,12,2,8427
-0.207389,-0.641478,-2.32162,-59.5,133.563,-168.625,-0.158203,0.668457,1.93799,3,-69,23,-4,-17,13,-59,-23,8500
-0.207389,-0.641478,-2.32162,-59.5,133.563,-168.625,-0.158203,0.668457,1.93799,9,39,55,29,-12,-1,-52,-15,8517
-0.178292,-0.61461,-2.41058,-66.375,114.875,-187.813,0.222168,1.12695,2.24365,-54,18,-22,-18,-8,-16,7,11,8535
-0.170251,-0.5797,-2.50346,-126.813,136.438,-199.875,0.839844,1.29736,2.41797,19,-42,22,-1,0,-2,10,-3,8552
-0.18572,-0.546051,-2.58756,-173.063,131.188,-183.563,1.03076,1.40723,2.48975,12,-48,-12,-10,6,-8,10,3,8570
-0.208795,-0.515588,-2.6598,-170.875,120.5,-157.938,1.08154,1.21094,2.19629,12,-29,-27,-13,17,-8,47,11,8587
-0.233262,-0.485167,-2.72487,-159.688,120.813,-140.938,1.00928,0.97998,1.84424,13,-35,8,-6,0,22,-42,-5,8604
-0.245461,-0.459256,-2.78619,-132.813,111,-124.75,0.821289,0.830078,1.45947,10,6,10,-25,-33,12,-128,-18,8621
-0.235105,-0.442203,-2.84349,-99.375,98.4375,-99.25,0.734863,0.693848,1.03564,-19,19,4,-1,-11,-8,-26,-10,8638
-0.226646,-0.431114,-2.88752,-69.9375,82.3125,-78.75,0.692383,0.51709,0.63916,-9,-2,-8,2,5,-5,26,2,8654
-0.226646,-0.431114,-2.88752,-69.9375,82.3125,-78.75,0.692383,0.51709,0.63916,3,-16,-10,-4,5,0,15,2,8672
-0.222428,-0.424138,-2.92239,-54.5625,67.8125,-65.9375,0.591309,0.346191,0.306641,4,-11,0,-2,4,5,-4,1,8689
-0.222566,-0.419495,-2.9499,-47.25,58.8125,-53.8125,0.513184,0.229492,0.0629883,-6,-2,-2,-2,-2,-2,10,-3,8707
-0.22445,-0.418342,-2.97141,-39.3125,49.1875,-42.25,0.500977,0.174316,-0.0932617,2,1,1,2,-2,1,15,-1,8724
-0.225529,-0.420253,-2.98791,-29.4375,38.125,-32.625,0.458984,0.163086,-0.199707,-5,11,-2,-3,-5,1,5,2,8741
-0.225529,-0.420253,-2.98791,-29.4375,38.125,-32.625,0.458984,0.163086,-0.199707,2,12,-2,1,0,-3,0,-2,8757
-0.212662,-0.456639,-3.00393,-1.75,14.6875,21,0.640625,0.359863,-0.272461,-1,5,-7,-14,-8,-4,-22,-1,8829
-0.212687,-0.471305,-2.98948,-1.0625,-9.3125,45.625,0.586914,0.350586,-0.147949,-1,5,-7,-14,-8,-4,-22,-1,8846
-0.217956,-0.4908,-2.96311,-0.0625,-35.4375,71.625,0.638184,0.296387,0.125,2,-8,-15,-4,-3,0,2,-13,8863
-0.217956,-0.4908,-2.96311,-0.0625,-35.4375,71.625,0.638184,0.296387,0.125,-3,5,-14,-10,6,-5,36,1,8881
-0.225481,-0.510487,-2.93077,-17.0625,-53.75,93.4375,0.801758,0.468262,0.830078,2,-5,32,-27,-10,-4,-14,-6,8898
-0.228739,-0.583603,-2.81114,113.188,-168.063,129.75,0.731934,0.632324,2.19238,7,4,-11,8,-1,8,-40,-3,8915
-0.228739,-0.583603,-2.81114,113.188,-168.063,129.75,0.731934,0.632324,2.19238,-11,-18,25,9,-31,18,-128,-18,8932
-0.215563,-0.635781,-2.73286,166.188,-186.563,146.375,0.798828,0.730957,2.36377,-47,36,9,24,26,-36,127,12,8950
-0.207927,-0.692719,-2.65487,159.688,-196.438,138,0.82666,0.73584,2.51172,-15,-22,-23,-4,32,-22,127,28,8966
-0.204082,-0.741974,-2.57809,156,-172.313,133.5,0.933105,0.570801,2.25244,49,-30,-16,1,20,-8,74,19,8983
-0.216961,-0.783235,-2.50857,100.375,-145.75,116.188,0.680176,0.679199,2.14307,30,-27,-8,-14,-7,20,-65,-1,8999
-0.216961,-0.783235,-2.50857,100.375,-145.75,116.188,0.680176,0.679199,2.14307,1,27,8,9,-12,8,-62,-7,9016
-0.235323,-0.817443,-2.44389,68.75,-146.063,111.313,0.271973,0.57373,1.9292,-15,30,1,-13,-19,1,-64,-7,9033
-0.261165,-0.849503,-2.3785,54.8125,-141.188,105.813,-0.0332031,0.517578,1.60645,7,-22,14,-10,-16,-4,-53,-11,9050
-0.261165,-0.849503,-2.3785,54.8125,-141.188,105.813,-0.0332031,0.517578,1.60645,-26,2,-1,14,6,-3,31,0,9066
-0.32442,-0.910217,-2.24363,55.4375,-134.438,92.125,-0.317871,0.221191,0.966797,-11,-7,-10,4,10,-5,41,4,9084
-0.422204,-0.954867,-2.014,41.5,-49.75,47.25,-0.535156,-0.198242,0.229492,1,-21,-7,-3,-1,0,2,-1,9168
-0.435122,-0.942867,-1.99526,12.0625,-15.9375,18.0625,-0.612793,-0.254395,0.216797,0,-4,-5,0,-1,-2,12,1,9185
-0.436404,-0.925037,-1.99998,-7.6875,9.625,-13.875,-0.726563,-0.291016,0.241699,4,-20,-17,-9,5,11,8,3,9203
-0.42224,-0.902186,-2.02508,-9,32.4375,-44.5,-0.817871,-0.327148,0.256348,3,-2,1,8,0,-1,5,2,9220
-0.42224,-0.902186,-2.02508,-9,32.4375,-44.5,-0.817871,-0.327148,0.256348,-5,-11,-20,-20,-14,0,-8,-5,9237
-0.393803,-0.873449,-2.07206,-20.8125,64.375,-67.4375,-0.742188,-0.18457,0.277832,3,-13,19,16,3,-3,-13,-3,9255
-0.358566,-0.838076,-2.13728,-48.125,87.8125,-87.5625,-0.647949,-0.0146484,0.466309,-4,-49,13,11,6,2,19,-3,9273
-0.322187,-0.809458,-2.21437,-62.8125,111.375,-114.25,-0.439941,0.106934,0.875488,2,32,-8,3,-2,10,4,3,9290
-0.289918,-0.769273,-2.30204,-86.0625,163.375,-134,-0.0322266,0.844238,1.89355,-12,-15,17,-14,-15,13,-34,-20,9308
-0.272161,-0.732325,-2.39479,-130.313,155.438,-157.25,0.458008,1.25781,2.60498,2,-24,-37,-2,-18,-8,-40,-8,9324
-0.276724,-0.683273,-2.48081,-173.438,185.938,-142.438,0.827637,1.20557,2.92041,-48,50,28,-7,-17,8,-32,-6,9341
-0.276724,-0.683273,-2.48081,-173.438,185.938,-142.438,0.827637,1.20557,2.92041,-7,-4,8,-25,-18,8,-64,-14,9358
-0.298929,-0.639973,-2.55196,-188.875,164.688,-119.25,1.31348,1.14551,2.7417,5,18,8,8,5,-22,24,4,9375
-0.300172,-0.600999,-2.62442,-124.625,156.75,-128.813,1.13232,0.677734,2.29443,2,38,-4,3,21,-20,69,20,9392
-0.290783,-0.566326,-2.69888,-90.75,146.813,-141.188,0.955078,0.849121,1.92334,18,-8,-11,-1,19,-8,74,12,9410
-0.273465,-0.538867,-2.76807,-72.125,119.5,-130.125,0.727539,0.792969,1.54736,-2,0,10,-16,-28,12,-102,-11,9427
-0.23937,-0.510852,-2.90152,-45.3125,51.4375,-57.625,0.818848,0.368164,0.418945,3,-3,0,-3,1,1,15,1,9490
-0.23937,-0.510852,-2.90152,-45.3125,51.4375,-57.625,0.818848,0.368164,0.418945,0,-6,2,-2,-3,-3,16,-4,9507
-0.222394,-0.513985,-2.94979,-14.1875,39.8125,-38.6875,0.551758,0.220703,-0.0517578,-1,-2,2,0,1,-1,-1,0,9524
-0.21161,-0.51883,-2.96677,-0.125,35.3125,-31,0.547363,0.17627,-0.219727,-3,-11,-9,-4,2,-4,-1,0,9542
-0.21161,-0.51883,-2.96677,-0.125,35.3125,-31,0.547363,0.17627,-0.219727,3,4,-5,-1,1,1,-6,1,9559
-0.190244,-0.529823,-2.99089,14.0625,44.5625,-18.3125,0.614258,0.0898438,-0.484375,1,-7,1,-1,0,0,2,-2,9576
-0.190244,-0.529823,-2.99089,14.0625,44.5625,-18.3125,0.614258,0.0898438,-0.484375,0,1,-1,0,3,1,23,0,9593
-0.18138,-0.531146,-2.99624,14.1875,49.5625,-2.125,0.600586,0.147949,-0.462402,2,5,3,2,1,-1,6,-1,9609
-0.174277,-0.530435,-2.99408,8.875,46.125,22.375,0.589355,0.302734,-0.307617,-4,-9,-10,-8,-1,-3,3,2,9627
-0.172587,-0.53362,-2.97896,4.8125,25.6875,55.4375,0.596191,0.404785,-0.190918,0,-1,7,9,-3,-2,-6,-6,9645
-0.18264,-0.541469,-2.95014,-5.25,2.3125,83.6875,0.644043,0.308105,0.0117188,-3,5,15,2,-3,-10,-14,-5,9663
-0.18264,-0.541469,-2.95014,-5.25,2.3125,83.6875,0.644043,0.308105,0.0117188,2,12,2,-4,-8,-4,9,0,9680
-0.236051,-0.547352,-2.86221,-13.625,-46.5625,117.938,0.712402,0.705078,1.36035,2,8,-3,-8,-6,-4,-12,1,9697
-0.236051,-0.547352,-2.86221,-13.625,-46.5625,117.938,0.712402,0.705078,1.36035,4,10,13,-1,11,1,14,8,9714
-0.258343,-0.584285,-2.79103,45.5625,-144.938,141,0.555664,0.745117,2.15527,22,2,-11,-34,-8,9,-47,-7,9731
-0.257592,-0.63771,-2.70326,146.313,-200.438,160.625,0.711914,0.333008,2.34668,-93,6,30,23,-16,-20,-2,-13,9748
-0.281089,-0.796561,-2.45104,109.625,-171.813,122.125,0.729004,0.677734,2.21826,-17,31,15,-26,-41,36,-121,-24,9819
-0.31151,-0.838075,-2.37491,71.625,-157.563,107.875,0.415527,0.786621,2.04492,-81,42,16,-24,-35,23,-128,-22,9836
-0.348392,-0.872355,-2.298,60.8125,-139.563,105,0.123535,0.638672,1.74121,-78,31,-8,4,-12,-7,-71,-14,9853
-0.348392,-0.872355,-2.298,60.8125,-139.563,105,0.123535,0.638672,1.74121,15,-39,-5,3,-10,-26,0,-12,9871
-0.41134,-0.914977,-2.15863,58.625,-119.75,94.5625,-0.204102,0.348633,1.01758,3,-45,-20,-8,3,7,-15,0,9888
-0.43603,-0.9331,-2.09647,66.9375,-104.375,77.8125,-0.307617,0.19043,0.722656,-4,-12,-17,-5,8,3,48,8,9905
-0.448812,-0.936314,-2.04742,66.4375,-87.25,65.1875,-0.455566,0.0522461,0.476074,3,35,2,4,-1,-4,20,3,9922
-0.468805,-0.935153,-2.00021,50.9375,-67.1875,57.5,-0.568359,-0.0986328,0.258789,1,6,-12,-1,-2,6,10,5,9940
-0.468805,-0.935153,-2.00021,50.9375,-67.1875,57.5,-0.568359,-0.0986328,0.258789,3,17,0,7,20,2,-32,-14,9957
-0.49287,-0.92952,-1.96122,28.25,-48.625,38,-0.779785,-0.240234,0.0791016,-5,3,0,-9,-1,-4,-3,9,9974
-0.508803,-0.918865,-1.94504,2,-23.6875,3.75,-0.914063,-0.330078,0.0830078,-5,3,0,-9,-1,-4,-3,9,9991
-0.508803,-0.918865,-1.94504,2,-23.6875,3.75,-0.914063,-0.330078,0.0830078,1,-23,-8,-12,2,10,31,-1,10008
-0.517659,-0.880282,-1.97949,-40.8125,38.125,-50.6875,-0.785156,-0.440918,0.193848,1,-23,-8,-12,2,10,31,-1,10025
-0.517659,-0.880282,-1.97949,-40.8125,38.125,-50.6875,-0.785156,-0.440918,0.193848,4,5,8,-13,3,10,-10,-2,10043
-0.487537,-0.857315,-2.02722,-14.9375,49.25,-78,-0.84375,-0.287109,0.340332,-6,-10,-20,-14,-2,-13,-6,-2,10060
-0.436429,-0.834822,-2.09532,-13.625,59.6875,-97.375,-0.72998,0.0732422,0.503418,-3,-3,8,10,7,8,-6,5,10077
-0.284264,-0.768303,-2.42859,-112.938,119.875,-143.75,1.2666,1.41113,2.76221,11,-21,15,-15,-9,3,-39,-9,10149
-0.278346,-0.741189,-2.51433,-151.438,124.5,-150.188,1.66357,1.24316,2.54053,18,-4,50,-35,0,-6,-9,-4,10166
-0.266881,-0.70806,-2.60932,-147.75,146.375,-171.063,1.29102,1.03418,2.21436,5,17,-9,13,21,-19,89,14,10183
-0.260839,-0.670696,-2.69395,-136.813,152.125,-152.875,1.02832,0.996094,1.84375,18,-15,-15,-1,21,3,62,12,10201
-0.254123,-0.634947,-2.7722,-132.688,141.563,-134.5,0.82373,0.79541,1.4165,11,-4,6,-11,2,9,-9,1,10219
-0.253927,-0.601189,-2.83486,-115.438,129.375,-108.938,0.636719,0.612305,1.04053,-3,-5,17,-4,-19,8,-60,-11,10235
-0.251972,-0.573807,-2.88552,-84.875,107.813,-90.5,0.571777,0.520996,0.716309,-11,-4,10,-7,-17,3,-75,-10,10252
-0.251972,-0.573807,-2.88552,-84.875,107.813,-90.5,0.571777,0.520996,0.716309,-6,2,2,-4,0,-5,1,8,10269
-0.236094,-0.558896,-2.93196,-58.5625,84.875,-73.0625,0.530273,0.48584,0.391602,-4,-3,-1,-2,-4,0,-16,-7,10286
-0.236094,-0.558896,-2.93196,-58.5625,84.875,-73.0625,0.530273,0.48584,0.391602,-1,-4,5,-1,0,0,-33,-1,10303
-0.206949,-0.54833,-2.99565,-21.625,53.9375,-44.9375,0.455078,0.371582,-0.152832,-3,-2,2,0,-3,-2,7,-2,10319
-0.196626,-0.549922,-3.01474,-13.0625,42.9375,-29.875,0.468262,0.311035,-0.307129,-1,0,-1,0,1,-3,-1,-1,10336
-0.196626,-0.549922,-3.01474,-13.0625,42.9375,-29.875,0.468262,0.311035,-0.307129,0,-3,-3,-3,-1,-1,2,2,10353
-0.188141,-0.554664,-3.02571,0.5,35.5625,-16,0.504395,0.208984,-0.418945,0,-2,-3,-1,3,0,17,4,10370
-0.1803,-0.561197,-3.03087,11.0625,35.125,-4.0625,0.586426,0.149902,-0.477539,-2,-3,-4,1,1,-3,0,-3,10387
-0.171701,-0.566958,-3.03089,17.1875,37.25,11.375,0.671875,0.20166,-0.415527,2,-1,0,1,3,0,18,9,10404
-0.20401,-0.579944,-2.95476,-29.4375,4.3125,103.688,0.826172,0.300781,0.15918,-3,28,-3,-3,-8,-4,-1,4,10466
-0.20401,-0.579944,-2.95476,-29.4375,4.3125,103.688,0.826172,0.300781,0.15918,-2,1,-4,-16,3,1,34,-1,10483
-0.254376,-0.597569,-2.85238,35.0625,-87.6875,120.875,0.756348,0.603027,1.4873,-1,24,16,-3,0,3,-14,1,10501
-0.246947,-0.637543,-2.78424,134.625,-150.25,126,0.52002,0.527832,2.24268,-12,37,-8,4,3,0,-11,-5,10519
-0.2383,-0.689891,-2.70159,170.625,-190.438,145.188,0.519043,0.806641,2.39307,24,-37,-23,-62,-44,21,-128,-29,10535
-0.254737,-0.748801,-2.61139,123.375,-211.438,147.625,0.619629,0.72998,2.38965,-20,-50,-32,51,-29,4,-118,-18,10552
-0.254737,-0.748801,-2.61139,123.375,-211.438,147.625,0.619629,0.72998,2.38965,-18,9,-17,-6,36,-20,125,22,10569
-0.280032,-0.797491,-2.52375,103,-181.875,136.5,0.816406,0.576172,2.20605,-18,9,-17,-6,36,-20,125,22,10585
-0.280032,-0.797491,-2.52375,103,-181.875,136.5,0.816406,0.576172,2.20605,82,2,-14,-4,26,4,85,24,10603
-0.344873,-0.878128,-2.36883,70.0625,-148.375,100.375,0.398926,0.736816,1.87158,62,-9,-2,-4,3,17,-32,3,10620
-0.379216,-0.90398,-2.30036,41.0625,-132.688,98.6875,0.194336,0.699219,1.55518,-55,20,21,-17,-34,14,-124,-29,10637
-0.379216,-0.90398,-2.30036,41.0625,-132.688,98.6875,0.194336,0.699219,1.55518,-18,-35,7,11,-4,-4,-22,-2,10655
-0.472309,-0.944068,-2.15309,33.4375,-118.438,94.75,-0.218262,0.244629,0.938477,1,-30,1,0,-1,0,3,4,10672
-0.472309,-0.944068,-2.15309,33.4375,-118.438,94.75,-0.218262,0.244629,0.938477,4,-2,-3,3,8,-5,38,3,10689
-0.509041,-0.95836,-2.08011,61.375,-105.563,87.3125,-0.336914,0.0708008,0.658691,8,21,-6,1,6,2,32,1,10705
-0.52808,-0.958592,-2.01887,80.6875,-88,78.0625,-0.427734,0.012207,0.402832,3,22,-1,1,0,-5,19,3,10722
-0.581405,-0.931242,-1.89744,16.375,-20.4375,26.375,-0.851074,-0.256836,0.169434,4,-24,-2,-2,-12,-10,-1,0,10790
-0.586729,-0.909856,-1.89231,3.25,2.4375,1.1875,-0.931641,-0.342773,0.211426,3,-5,15,11,5,-12,10,3,10808
-0.575156,-0.8869,-1.91012,-0.75,26.75,-28.9375,-0.860352,-0.350586,0.275879,4,37,-1,-7,-8,-20,8,0,10825
-0.543621,-0.864063,-1.9556,-13.1875,54.875,-59.0625,-0.652344,-0.153809,0.387695,0,0,-22,-15,3,7,-2,-1,10842
-0.493452,-0.837952,-2.02901,-34.125,74.375,-91.75,-0.512695,0.0454102,0.753906,2,18,-36,-31,-7,-1,12,-2,10859
-0.45234,-0.82452,-2.10791,-49,103.625,-118,-0.273438,0.440918,1.43506,3,14,5,27,13,10,23,-1,10877
-0.45234,-0.82452,-2.10791,-49,103.625,-118,-0.273438,0.440918,1.43506,0,-2,8,-34,-17,-26,0,-2,10894
-0.45234,-0.82452,-2.10791,-49,103.625,-118,-0.273438,0.440918,1.43506,0,-2,8,-34,-17,-26,0,-2,10910
-0.411548,-0.811761,-2.19213,-59.75,102.313,-134.813,0.0878906,1.14697,2.09863,-6,-65,-33,-39,-4,8,-45,-12,10928
-0.366923,-0.796138,-2.29265,-79.6875,117.25,-168.125,0.65918,1.12744,2.55859,-11,-62,62,17,-9,24,-75,-7,10946
-0.328799,-0.760279,-2.497,-164.75,114.125,-190.438,1.28662,1.05713,2.36328,-6,-8,-20,1,-19,-11,-48,-3,10963
-0.319274,-0.739935,-2.60228,-178.625,125.5,-190.813,1.07861,1.09961,2.05811,22,17,-9,11,13,-16,98,19,10981
-0.322222,-0.719159,-2.69611,-187.5,119.875,-171.625,0.971191,1.02588,1.66797,18,15,-46,28,47,-35,125,28,10998
-0.322222,-0.719159,-2.69611,-187.5,119.875,-171.625,0.971191,1.02588,1.66797,8,-24,0,-11,-8,20,-60,-3,11015
-0.319841,-0.698852,-2.78394,-172.875,112,-150.063,0.779785,0.830078,1.25342,-16,8,5,-2,-26,-2,-65,-10,11033
-0.315368,-0.681673,-2.85694,-132.563,96,-128,0.616699,0.673828,0.867188,-12,12,11,1,-8,1,-27,-8,11051
-0.246167,-0.67436,-3.04896,-31.4375,38.4375,-53.4375,0.422363,0.288086,-0.204102,-1,-5,0,-2,-1,-2,-10,-3,11117
-0.246167,-0.67436,-3.04896,-31.4375,38.4375,-53.4375,0.422363,0.288086,-0.204102,-1,-7,-6,2,1,-4,3,1,11135
-0.239661,-0.67926,-3.0691,-24.0625,33.25,-33,0.395996,0.216797,-0.355957,1,-1,-2,1,-1,-3,0,-4,11152
-0.234932,-0.687613,-3.07896,-5.75,25.6875,-15.25,0.455078,0.14209,-0.463379,6,16,-4,-2,-1,0,9,-1,11169
-0.229091,-0.700135,-3.08171,10.25,19.5,-0.3125,0.580566,0.150879,-0.53125,6,1,-4,9,2,-4,8,-2,11187
-0.220174,-0.714124,-3.08095,18.25,17.8125,13.625,0.695801,0.283203,-0.487793,-2,-26,0,2,-5,-4,-4,6,11205
-0.213278,-0.728621,-3.07118,15.125,9.5625,44.125,0.777344,0.522949,-0.344238,-5,5,1,-5,-2,-1,-3,-4,11222
-0.219841,-0.747034,-3.04186,12.375,-16.0625,83.6875,0.818848,0.530762,-0.182129,-2,-8,9,-3,0,4,-5,2,11240
-0.254468,-0.753156,-2.989,-2.5625,-36.5625,111.188,0.850586,0.442383,0.299805,0,14,23,12,5,-2,15,2,11257
-0.254468,-0.753156,-2.989,-2.5625,-36.5625,111.188,0.850586,0.442383,0.299805,-6,1,-22,10,-2,-15,39,12,11274
-0.286818,-0.763878,-2.92539,21.75,-69.8125,129,0.819336,0.575684,1.18115,-2,18,-4,58,16,3,33,5,11291
-0.307021,-0.801583,-2.83348,127.75,-157.875,146.938,0.890625,0.874512,1.89111,10,23,-23,-61,-30,14,-106,-14,11308
-0.312035,-0.850279,-2.73232,199,-192.75,145.063,1.15283,0.757324,2.19043,-38,11,37,18,-50,2,-125,-31,11326
-0.329337,-0.893497,-2.62034,196.063,-182.875,156.875,1.16406,1.03955,2.4873,-82,-29,31,4,-10,-22,-36,-15,11344
-0.369643,-0.937356,-2.5013,155.438,-189,152.5,1.12451,0.807129,2.39014,40,-7,-46,11,57,-21,115,42,11360
-0.418027,-0.96508,-2.39263,114.688,-142.875,136.313,1.08643,0.719727,2.22705,76,-2,-42,-5,32,13,94,19,11377
-0.528716,-1.00659,-2.19561,80.375,-119.375,108,0.321777,0.492188,1.82422,-47,-29,3,6,-3,-9,-23,-6,11438
-0.582608,-1.01806,-2.10091,75.8125,-103.813,104.75,0.0322266,0.543457,1.47363,-20,-17,2,11,13,-14,58,2,11455
-0.63059,-1.01964,-2.0161,60.5625,-94.75,106.125,-0.21582,0.394043,1.13232,-1,-8,-14,3,21,-14,69,13,11473
-0.675156,-1.01631,-1.93563,63.5625,-79.8125,103.25,-0.321289,0.182617,0.801758,15,26,-1,-4,3,-3,12,0,11490
-0.699801,-0.997365,-1.87244,67.6875,-65.1875,99.9375,-0.447754,0.050293,0.563965,0,-11,-6,-7,-2,-1,-13,1,11508
-0.726221,-0.97949,-1.81201,61.6875,-63.875,84.875,-0.576172,-0.0961914,0.42041,6,4,1,4,2,5,8,-2,11525
-0.748135,-0.962838,-1.76343,54.0625,-52.3125,55.75,-0.705566,-0.282715,0.268555,-9,-12,9,3,1,3,4,1,11542
-0.762328,-0.94494,-1.73842,22.5,-26.1875,22.75,-0.840332,-0.348633,0.203613,-3,5,2,-2,-5,-8,-1,-1,11559
-0.762328,-0.94494,-1.73842,22.5,-26.1875,22.75,-0.840332,-0.348633,0.203613,-3,5,14,4,-1,1,13,1,11576
-0.747944,-0.907326,-1.77129,-20.6875,35.625,-38.9375,-0.750488,-0.310547,0.255371,-2,7,-10,-8,-2,-1,-2,-1,11594
-0.747944,-0.907326,-1.77129,-20.6875,35.625,-38.9375,-0.750488,-0.310547,0.255371,-7,-30,-12,-21,-1,-1,0,-2,11611
-0.721103,-0.891354,-1.81856,-31.1875,51.75,-62.125,-0.713867,-0.200684,0.29248,-3,1,2,20,5,0,5,0,11628
-0.678326,-0.877238,-1.88513,-35.6875,66.0625,-86,-0.64209,-0.0380859,0.394531,-5,-16,-45,-8,0,1,5,-2,11645
-0.62883,-0.871912,-1.96612,-41.3125,91.1875,-110.375,-0.413086,0.0927734,0.599609,-5,-16,-45,-8,0,1,5,-2,11662
-0.62883,-0.871912,-1.96612,-41.3125,91.1875,-110.375,-0.413086,0.0927734,0.599609,-5,-8,-77,-46,-13,-1,8,-4,11679
-0.559139,-0.855222,-2.07488,-50.1875,134,-135.375,-0.21582,0.499512,1.30762,12,14,88,22,0,8,0,3,11697
-0.416914,-0.797777,-2.39249,-151.313,149.75,-149.563,1.40723,1.78467,2.73535,-11,27,10,13,-21,-3,-31,-12,11747
-0.402529,-0.776375,-2.48992,-156.625,134.375,-156.313,1.39307,1.14502,2.27588,7,30,1,3,-8,-14,33,4,11764
-0.38138,-0.751371,-2.59308,-143.75,148,-170,1.11328,1.1543,2.03418,7,-9,-12,8,21,-8,53,10,11782
-0.367334,-0.729128,-2.68883,-145.125,133.438,-165.438,0.944824,1.05811,1.69727,1,-9,-19,22,16,-4,58,21,11799
-0.367334,-0.729128,-2.68883,-145.125,133.438,-165.438,0.944824,1.05811,1.69727,2,-11,-7,-3,-11,9,-60,-8,11816
-0.353064,-0.707805,-2.77844,-145.813,121.438,-144.375,0.791504,0.966309,1.28711,-5,-6,3,-1,-4,-4,-37,-7,11833
-0.344189,-0.692626,-2.85004,-118.75,94.6875,-122.063,0.731445,0.666016,0.852539,-4,6,4,1,-1,2,4,-6,11849
-0.332212,-0.684843,-2.91189,-86,68.8125,-114.188,0.624023,0.419922,0.513672,-2,4,-3,0,2,-1,14,-4,11866
-0.316877,-0.682552,-2.96329,-54.0625,46.875,-100.25,0.530273,0.339844,0.226563,-1,4,2,0,-2,-4,-12,-2,11883
-0.316877,-0.682552,-2.96329,-54.0625,46.875,-100.25,0.530273,0.339844,0.226563,-1,-2,1,-1,-2,2,-1,-6,11900
-0.277421,-0.704014,-3.03669,-16.5,18.625,-54.75,0.507324,0.240723,-0.188477,-1,1,0,-2,-3,-5,9,-2,11917
-0.277421,-0.704014,-3.03669,-16.5,18.625,-54.75,0.507324,0.240723,-0.188477,-1,-4,-2,0,-1,3,27,0,11934
-0.266053,-0.718747,-3.05432,-2.375,10.1875,-35.0625,0.483887,0.145996,-0.364258,-3,-1,-3,0,3,-1,1,2,11951
-0.256147,-0.7352,-3.06304,13.8125,7.1875,-19.6875,0.519043,0.0839844,-0.495117,1,0,-7,-3,2,-3,12,0,11968
-0.245783,-0.752319,-3.06538,23.6875,6.0625,-2.3125,0.591309,0.157227,-0.495117,1,0,0,2,7,-2,4,0,11985
-0.235707,-0.767433,-3.06116,26.75,-0.0625,18.9375,0.57373,0.291992,-0.350586,5,8,1,0,3,-2,4,3,12002
-0.296134,-0.819301,-2.93093,0.4375,-64.625,126.125,0.76709,0.373535,0.380859,0,17,15,9,15,4,18,-4,12065
-0.329536,-0.833594,-2.85928,46.875,-82.4375,129.063,1.00977,0.432617,0.924316,15,13,-23,-11,-3,3,1,-2,12082
-0.358329,-0.848538,-2.77683,93.5,-93.875,133.438,1.07129,0.870605,1.85742,8,5,-23,-5,1,-3,-6,-7,12100
-0.358329,-0.848538,-2.77683,93.5,-93.875,133.438,1.07129,0.870605,1.85742,-55,-109,51,-18,-68,3,-120,-34,12117
-0.383952,-0.873673,-2.67761,142.313,-134,146.75,0.775391,0.869141,2.22998,-95,20,-29,28,31,-45,108,10,12135
-0.425837,-0.894761,-2.55736,146.438,-141.688,177.25,0.864746,0.927246,2.625,-3,-13,-9,46,79,-44,127,42,12152
-0.472583,-0.921837,-2.43309,147.188,-165.25,163.563,0.818848,0.728516,2.42334,97,10,-49,-7,54,-7,127,40,12169
-0.515823,-0.940205,-2.32276,129.688,-135.875,141.063,0.875977,0.635742,2.08398,67,19,-4,-45,-27,33,-75,-9,12186
-0.563716,-0.955544,-2.22868,81.4375,-118.625,112.5,0.595215,0.692383,1.97998,3,21,14,-16,-55,33,-128,-34,12203
-0.621499,-0.967095,-2.14018,43,-108.438,102.125,0.335449,0.597656,1.74658,-37,16,28,-21,-65,17,-125,-48,12220
-0.621499,-0.967095,-2.14018,43,-108.438,102.125,0.335449,0.597656,1.74658,-88,-17,21,16,8,-18,-15,3,12237
-0.683091,-0.974838,-2.05674,20.5625,-99.375,93.6875,0.0112305,0.495117,1.44873,26,5,-14,8,25,-13,90,22,12254
-0.699469,-0.965509,-2.01036,23.8125,-99.875,89.125,-0.313965,0.406738,1.10254,26,5,-14,8,25,-13,90,22,12271
-0.719637,-0.95909,-1.95673,42.375,-97.5,80.4375,-0.388672,0.233398,0.754395,32,-15,-24,-2,19,-3,81,14,12288
-0.719637,-0.95909,-1.95673,42.375,-97.5,80.4375,-0.388672,0.233398,0.754395,10,2,-5,1,0,1,-14,-1,12305
-0.753944,-0.941107,-1.85823,54.5,-64.5625,62.0625,-0.449219,-0.0419922,0.368652,8,5,-6,-5,-2,4,-35,0,12321
-0.79393,-0.884803,-1.76465,14,-5.8125,27.25,-0.693848,-0.384766,0.0673828,-5,-13,9,1,2,8,-46,-15,12383
-0.79393,-0.884803,-1.76465,14,-5.8125,27.25,-0.693848,-0.384766,0.0673828,1,5,-14,-10,-6,-3,-14,-3,12400
-0.794257,-0.864545,-1.77158,-9.125,23.9375,-6.3125,-0.585449,-0.38623,0.14209,0,14,0,-1,6,9,8,3,12417
-0.77942,-0.845493,-1.80393,-26.75,45.125,-42.375,-0.666504,-0.328125,0.286133,-7,-7,-22,21,8,0,5,1,12433
-0.77942,-0.845493,-1.80393,-26.75,45.125,-42.375,-0.666504,-0.328125,0.286133,1,2,4,24,-7,-1,7,7,12450
-0.695927,-0.813989,-1.92762,-23.3125,70.9375,-94.75,-0.549316,-0.0161133,0.703125,1,2,4,24,-7,-1,7,7,12467
-0.695927,-0.813989,-1.92762,-23.3125,70.9375,-94.75,-0.549316,-0.0161133,0.703125,3,7,-1,34,13,5,25,6,12485
-0.640636,-0.805023,-2.01446,-35.8125,107.75,-114.875,-0.282227,0.461426,1.31934,-3,-11,24,-19,-5,-3,-4,-6,12502
-0.59532,-0.797582,-2.10493,-56.5,121.813,-134.875,0.0791016,1.05762,1.96973,-18,-6,-74,111,-2,5,-69,-10,12518
-0.557205,-0.789172,-2.20686,-99.1875,131.688,-158.688,0.61377,1.16455,2.5835,-14,37,27,87,3,5,-24,-8,12535
-0.557205,-0.789172,-2.20686,-99.1875,131.688,-158.688,0.61377,1.16455,2.5835,1,18,18,-34,-5,-17,-7,-3,12552
-0.537709,-0.751947,-2.38195,-158.25,141.375,-127.938,1.52148,1.08838,2.31396,8,-13,1,-4,18,-16,80,8,12569
-0.520773,-0.728541,-2.47646,-134.5,158.75,-138.938,1.0874,0.975586,2.01221,19,-6,-6,17,25,-12,115,20,12586
-0.520773,-0.728541,-2.47646,-134.5,158.75,-138.938,1.0874,0.975586,2.01221,11,-14,13,19,7,10,-2,5,12603
-0.507191,-0.702452,-2.55908,-116.188,153.063,-119.063,0.961914,0.992188,1.67236,2,-20,-21,-40,-12,8,-61,-7,12620
-0.484359,-0.659193,-2.69217,-91.8125,108.688,-79.625,0.737793,0.566895,0.897949,-14,-8,31,0,-4,2,-61,-15,12637
-0.418506,-0.660857,-2.83595,-35.9375,48.5625,-56.125,0.570801,0.34375,0.0756836,12,-12,-7,4,9,-4,8,5,12710
-0.411481,-0.667118,-2.86236,-35.75,36.6875,-41.375,0.504395,0.227051,-0.0859375,0,2,-1,-10,0,1,-9,-3,12727
-0.408752,-0.67394,-2.87742,-20.5,29.25,-22.875,0.475098,0.137695,-0.231445,-2,-7,0,3,1,1,-15,-4,12744
-0.407235,-0.682715,-2.8837,-1.75,23.8125,-9.625,0.491699,0.0639648,-0.398926,3,-3,6,-6,-7,1,10,0,12761
-0.405961,-0.693957,-2.88533,6.75,19.1875,-0.9375,0.566406,0.0771484,-0.457031,-3,-3,3,0,0,2,4,-1,12778
-0.405961,-0.693957,-2.88533,6.75,19.1875,-0.9375,0.566406,0.0771484,-0.457031,1,16,-3,-4,-3,-4,16,0,12795
-0.403839,-0.706674,-2.88379,4.375,9.9375,11.8125,0.594238,0.241699,-0.356934,0,-2,-7,0,0,-3,-1,8,12812
-0.402681,-0.724358,-2.87179,13.8125,-13.625,33.625,0.665039,0.354492,-0.258301,2,11,-1,-5,-2,2,-15,-5,12829
-0.409016,-0.745076,-2.84396,23.75,-40,58.5625,0.730469,0.271973,-0.0908203,-3,-1,-7,-18,-4,2,-5,2,12846
-0.417854,-0.756683,-2.80924,15.6875,-46,86.875,0.76709,0.37207,0.450684,-2,-6,-24,13,-1,-4,22,-3,12864
-0.417854,-0.756683,-2.80924,15.6875,-46,86.875,0.76709,0.37207,0.450684,-8,13,23,82,12,5,27,2,12881
-0.436804,-0.764042,-2.74641,54.125,-78.8125,123.875,0.869629,0.779297,1.26318,1,-21,-69,28,2,-3,7,0,12898
-0.46574,-0.787693,-2.65536,99.75,-142.563,137.75,0.99707,0.848633,1.771,36,-14,-34,-67,-39,27,-127,-24,12915
-0.480623,-0.816961,-2.5569,160.313,-163.875,136.375,0.984863,0.649902,2.19922,9,-17,5,-35,-51,20,-128,-29,12933
-0.498571,-0.846707,-2.44898,177.438,-173.25,144.188,0.910156,0.963867,2.33691,-84,-39,-37,-44,-33,-18,-80,-16,12949
-0.52697,-0.878216,-2.33732,161.438,-180.938,137.063,0.840332,0.67627,2.25049,62,5,-51,19,72,-24,123,48,12965
-0.658116,-0.925504,-2.05564,48.375,-111.5,111.688,0.192383,0.683594,1.73779,-65,16,11,-24,-49,9,-125,-21,13020
-0.658116,-0.925504,-2.05564,48.375,-111.5,111.688,0.192383,0.683594,1.73779,-4,-31,33,16,-1,-5,-14,-7,13038
-0.709351,-0.926143,-1.97086,47.1875,-93.75,112.188,-0.0180664,0.568848,1.43799,-24,-35,-1,24,12,-13,67,9,13055
-0.742665,-0.918529,-1.89866,59.25,-82.75,111.5,-0.160645,0.394043,1.07373,4,20,-5,1,13,-10,58,12,13073
-0.768243,-0.907707,-1.83382,67.4375,-67.5625,105.5,-0.249023,0.213379,0.761719,10,-11,-23,-5,14,5,29,7,13090
-0.775347,-0.886322,-1.79103,54.9375,-49.4375,93.6875,-0.307617,0.117676,0.563965,14,21,-7,-2,4,7,55,-2,13108
-0.78452,-0.864444,-1.75636,39.6875,-33.0625,72.9375,-0.411133,-0.050293,0.382813,4,8,4,-6,-3,-5,-54,3,13126
-0.793643,-0.841332,-1.73731,14.3125,-9.8125,43.0625,-0.574707,-0.212891,0.243164,1,-39,-1,-6,-7,-4,10,-4,13143
-0.793643,-0.841332,-1.73731,14.3125,-9.8125,43.0625,-0.574707,-0.212891,0.243164,-3,17,4,4,1,-5,-14,0,13160
-0.798951,-0.817348,-1.73412,-4.625,10.5625,12.4375,-0.760254,-0.306641,0.169922,-4,8,40,-10,-1,5,-2,0,13178
-0.797217,-0.79781,-1.74544,-9.5,20.5625,-23.5625,-0.874512,-0.380371,0.112793,3,9,4,14,2,2,3,1,13194
-0.784864,-0.7854,-1.77321,-14.375,30.6875,-58.9375,-0.833496,-0.339844,0.113281,2,39,1,-5,-4,-8,1,1,13211
-0.759779,-0.777274,-1.81904,-23.5625,43.5,-83.5625,-0.72168,-0.188965,0.258789,-5,-13,27,-21,-2,2,-6,-3,13227
-0.72736,-0.786034,-1.87253,-17.9375,43,-104.125,-0.717285,-0.115234,0.468262,4,-15,-3,65,-5,-1,-8,4,13243
-0.679615,-0.796677,-1.9372,-1.625,46.8125,-123.313,-0.593262,0.059082,0.708984,8,-16,-22,1,-2,2,-6,-1,13260
-0.679615,-0.796677,-1.9372,-1.625,46.8125,-123.313,-0.593262,0.059082,0.708984,3,-19,-11,-5,-4,-4,9,2,13277
-0.54865,-0.827239,-2.26946,-166.063,92.1875,-137.25,1.19775,1.38379,2.30664,3,-17,12,-59,-14,-1,-52,-13,13349
-0.54865,-0.827239,-2.26946,-166.063,92.1875,-137.25,1.19775,1.38379,2.30664,7,23,-10,-1,2,-14,38,7,13366
-0.536354,-0.819754,-2.36194,-159.25,111.5,-143.188,1.26367,1.39795,2.20361,7,23,-10,-1,2,-14,38,7,13383
-0.531597,-0.804997,-2.45015,-170.188,124.563,-128.688,1.06396,1.31836,2.04004,10,10,12,-17,18,-16,89,12,13400
-0.532235,-0.78611,-2.52237,-149.5,120.313,-97.0625,1.02051,1.19531,1.75977,10,-2,46,0,-1,11,-54,-4,13417
-0.480404,-0.777857,-2.60422,-86.375,86.625,-62.9375,1.00391,0.934082,1.24023,-9,2,-2,-5,-3,3,-15,-3,13434
-0.442705,-0.779169,-2.66341,-51.25,62.375,-60.1875,1.02881,0.556641,0.711426,-3,3,1,7,-2,-2,6,-1,13451
-0.413502,-0.78047,-2.71696,-53,57.5625,-62.3125,0.852539,0.428223,0.488281,-2,0,7,-11,-4,-2,9,0,13468
-0.413502,-0.78047,-2.71696,-53,57.5625,-62.3125,0.852539,0.428223,0.488281,-1,2,-13,-5,5,-3,10,-1,13485
-0.394184,-0.781141,-2.76014,-50.5625,48.5625,-54.125,0.657227,0.303711,0.29541,-1,-6,-4,-14,-1,0,10,-2,13503
-0.381843,-0.784387,-2.79208,-37.9375,37.0625,-45.875,0.571289,0.15332,0.103027,-3,-8,8,-3,-2,2,11,-1,13520
-0.371742,-0.791507,-2.81701,-23.6875,27.1875,-41.6875,0.510254,0.0771484,-0.0898438,-2,-2,-6,-9,-3,-5,-2,0,13537
-0.364919,-0.802021,-2.83426,-11.875,20.6875,-33.1875,0.488281,0.0341797,-0.291992,0,3,2,0,1,-1,-8,-3,13555
-0.358513,-0.815513,-2.8472,-0.5,19.1875,-29.0625,0.531738,-0.00341797,-0.453613,-1,-1,4,4,-1,-2,-35,1,13572
-0.354376,-0.829209,-2.85902,-8.0625,18,-23.875,0.507324,0.0654297,-0.486816,-1,1,-3,-2,1,-2,27,1,13589
-0.354376,-0.829209,-2.85902,-8.0625,18,-23.875,0.507324,0.0654297,-0.486816,1,-2,-6,-2,1,-1,38,1,13607
-0.362231,-0.877182,-2.83157,28.3125,-46.0625,53.9375,0.544922,0.322754,-0.129883,-3,-5,-18,-17,-3,-4,-1,-2,13662
-0.38263,-0.890431,-2.79227,12.3125,-36.3125,83.6875,0.747559,0.34668,0.0927734,-6,-11,-30,-4,-2,-2,34,3,13678
-0.396272,-0.89029,-2.7622,-7.0625,-35.75,90.8125,0.740234,0.512695,0.834961,1,2,-8,50,-3,-3,-11,2,13694
-0.44002,-0.89835,-2.6893,37.1875,-74.375,110.25,0.584961,0.973145,1.74414,6,-8,-92,-41,-15,12,-85,-10,13711
-0.486113,-0.928585,-2.57084,137,-170.375,146.875,0.495117,0.80127,2.21387,40,16,9,14,-30,36,-128,-18,13728
-0.486113,-0.928585,-2.57084,137,-170.375,146.875,0.495117,0.80127,2.21387,-67,-38,11,-16,-11,-29,1,-11,13745
-0.560036,-0.97316,-2.3181,174.625,-148.625,128.688,1.31201,0.638184,2.06348,5,38,-7,-15,49,-19,127,27,13762
-0.560036,-0.97316,-2.3181,174.625,-148.625,128.688,1.31201,0.638184,2.06348,15,-29,-26,-30,-19,21,-79,-9,13779
-0.592017,-0.978183,-2.22911,119.5,-89.9375,112.125,1.04785,0.735352,2.1582,0,-46,3,17,-10,7,-58,-9,13796
-0.592017,-0.978183,-2.22911,119.5,-89.9375,112.125,1.04785,0.735352,2.1582,20,30,-22,15,8,2,4,8,13812
-0.683301,-0.973233,-2.07475,46.0625,-70.9375,101.25,0.369629,0.513184,1.80908,30,7,-23,1,3,0,29,4,13830
-0.728729,-0.969155,-1.99995,46.5625,-69.5,99.3125,0.0820313,0.550781,1.47217,2,-12,-9,-9,0,1,7,-2,13848
-0.728729,-0.969155,-1.99995,46.5625,-69.5,99.3125,0.0820313,0.550781,1.47217,-13,-15,4,-2,2,-4,-26,1,13865
-0.736467,-0.932984,-1.92724,38.5,-65.1875,89.125,-0.299805,0.244629,0.887695,0,-5,-9,-8,3,-2,27,4,13881
-0.736467,-0.932984,-1.92724,38.5,-65.1875,89.125,-0.299805,0.244629,0.887695,10,2,-4,-13,-5,2,7,-1,13899
-0.743766,-0.915382,-1.88892,44.5,-53.0625,79.875,-0.316406,0.126465,0.654785,0,3,0,2,-2,-2,6,1,13916
-0.772718,-0.866804,-1.79646,24,-18.625,29.9375,-0.494629,-0.336426,0.168945,-3,-4,-3,-1,-4,-3,2,-1,13985
-0.789903,-0.835607,-1.80511,-34.5,24.5,-32.875,-0.603027,-0.470703,0.0839844,-3,2,1,5,3,-2,9,-2,14002
-0.789903,-0.835607,-1.80511,-34.5,24.5,-32.875,-0.603027,-0.470703,0.0839844,-2,-7,-6,-9,-3,-4,6,-1,14020
-0.785529,-0.824695,-1.83694,-46.6875,38.25,-61.4375,-0.597168,-0.411621,0.139648,-3,-12,-29,-21,-8,-5,-8,-5,14038
-0.785529,-0.824695,-1.83694,-46.6875,38.25,-61.4375,-0.597168,-0.411621,0.139648,4,3,9,16,3,2,-4,-1,14056
-0.742585,-0.815235,-1.9388,-49.75,42.6875,-97.375,-0.593262,-0.0810547,0.435059,-5,-2,-19,-21,-5,-12,5,-1,14073
-0.688651,-0.810422,-2.01576,-47.0625,50.75,-99.375,-0.387207,0.336914,0.915039,-3,-14,-28,-7,-10,-1,7,-4,14090
-0.688651,-0.810422,-2.01576,-47.0625,50.75,-99.375,-0.387207,0.336914,0.915039,-2,2,81,-33,-1,1,-40,-2,14107
-0.655423,-0.82613,-2.14621,-124.938,51.125,-119.75,0.63916,1.15137,2.47266,-4,3,0,2,-1,3,-3,0,14123
-0.655423,-0.82613,-2.14621,-124.938,51.125,-119.75,0.63916,1.15137,2.47266,-5,15,-34,3,-1,5,-29,-2,14139
-0.660232,-0.826983,-2.21055,-149.625,74.4375,-100.625,1.2417,1.16406,2.50635,-9,1,-62,5,-18,0,4,-8,14156
-0.660232,-0.826983,-2.21055,-149.625,74.4375,-100.625,1.2417,1.16406,2.50635,12,19,-8,60,4,-4,28,4,14172
-0.620967,-0.813057,-2.33512,-38.125,83.25,-76.375,1.09033,1.09668,1.81348,8,-4,-27,19,7,1,8,-5,14189
-0.597139,-0.805149,-2.38485,-34.875,74.4375,-67.75,1.38965,1.23096,1.52734,2,-13,-16,-20,1,-3,-2,-2,14207
-0.597139,-0.805149,-2.38485,-34.875,74.4375,-67.75,1.38965,1.23096,1.52734,-1,-6,20,3,-2,-1,-17,-6,14224
-0.547462,-0.791733,-2.52163,-84.375,76.0625,-80.75,0.755371,0.491699,1.08252,-3,-3,18,-1,-6,-1,-7,-6,14240
-0.441541,-0.789031,-2.67894,-27.5625,41.8125,-54.375,0.450684,0.199707,0.276367,-2,1,0,5,0,1,11,0,14314
-0.431698,-0.793681,-2.70631,-31.25,28.8125,-43.375,0.447266,0.0693359,0.0463867,0,0,3,-3,0,0,-7,0,14332
-0.431698,-0.793681,-2.70631,-31.25,28.8125,-43.375,0.447266,0.0693359,0.0463867,0,-1,-5,-3,2,-3,29,2,14349
-0.420926,-0.811675,-2.74591,-14.9375,22.875,-36.5,0.443848,-0.0185547,-0.297363,3,-1,-1,-1,3,-2,13,1,14367
-0.414084,-0.824137,-2.76118,-5.875,21.5,-30.3125,0.503418,0.0395508,-0.40332,0,-2,1,0,-2,1,5,1,14385
-0.414084,-0.824137,-2.76118,-5.875,21.5,-30.3125,0.503418,0.0395508,-0.40332,-1,-8,-7,-5,-3,-2,7,-1,14402
-0.414084,-0.824137,-2.76118,-5.875,21.5,-30.3125,0.503418,0.0395508,-0.40332,2,8,8,8,4,0,8,0,14420
-0.4032,-0.843183,-2.78395,-16.8125,21.75,3.375,0.550293,0.331055,-0.27002,0,-6,-23,-4,-6,-2,-5,0,14437
-0.413363,-0.851739,-2.77303,-20.5,6.1875,43.375,0.598633,0.443359,-0.230469,0,0,-2,16,1,-3,-6,-1,14454
-0.413363,-0.851739,-2.77303,-20.5,6.1875,43.375,0.598633,0.443359,-0.230469,-3,-7,27,-35,-3,-2,11,0,14471
-0.455018,-0.847067,-2.72154,-41.125,3.4375,93.5625,0.833496,0.558105,0.661133,4,5,37,-16,2,3,-20,2,14488
-0.506642,-0.844762,-2.66213,-20.375,-46.125,103.125,0.65918,0.999023,1.51807,-3,6,26,-11,-2,-1,-14,2,14506
-0.506642,-0.844762,-2.66213,-20.375,-46.125,103.125,0.65918,0.999023,1.51807,3,2,-34,96,-1,8,-66,-6,14522
-0.506642,-0.844762,-2.66213,-20.375,-46.125,103.125,0.65918,0.999023,1.51807,-7,-4,9,-81,-7,6,-61,-9,14539
-0.595013,-0.88386,-2.42059,203.063,-171.75,173.813,0.873535,0.278809,2.49609,-2,8,0,-1,18,-22,123,14,14555
-0.59207,-0.909498,-2.30511,267.125,-176.625,130.313,1.16992,0.248535,1.86768,33,-4,18,30,23,0,54,13,14573
-0.57709,-0.929907,-2.15917,19.5625,-72.4375,64.375,0.396973,0.419922,1.72217,9,0,6,-1,1,-4,19,3,14641
-0.561956,-0.921966,-2.13775,50,-73.0625,63.125,0.115234,0.335449,1.35742,19,-17,-9,0,4,-6,16,0,14659
-0.56145,-0.916933,-2.10855,31.75,-69.5,72.8125,-0.0117188,0.417969,0.977051,1,0,-17,-10,3,-1,-1,1,14675
-0.579291,-0.910328,-2.07119,5,-70.5625,75.3125,-0.122559,0.250488,0.847168,3,7,8,1,2,-1,12,4,14692
-0.596463,-0.903283,-2.03012,26.8125,-69.25,68,-0.219238,0.027832,0.702148,4,10,-7,2,-3,-1,-5,0,14709
-0.596463,-0.903283,-2.03012,26.8125,-69.25,68,-0.219238,0.027832,0.702148,-2,30,0,-1,-4,0,2,-2,14726
-0.610749,-0.885966,-1.9596,52.625,-34,45.75,-0.368652,-0.0947266,0.217773,-2,15,-2,-2,-1,-1,8,-6,14743
-0.610749,-0.885966,-1.9596,52.625,-34,45.75,-0.368652,-0.0947266,0.217773,1,-6,1,2,0,-1,22,2,14761
-0.615046,-0.873574,-1.9407,33.625,-12.375,27.1875,-0.440918,-0.191895,0.108887,-4,-10,-3,-3,0,-1,32,-1,14778
-0.615046,-0.873574,-1.9407,33.625,-12.375,27.1875,-0.440918,-0.191895,0.108887,2,3,-4,2,1,-2,10,2,14795
-0.621468,-0.835644,-1.93376,-2.625,11.75,-4,-0.745605,-0.319336,0.183105,0,22,4,11,2,-2,13,1,14812
-0.620678,-0.817367,-1.94384,-7,15.9375,-28.75,-0.765625,-0.45459,0.176758,5,-61,-54,-7,-5,-1,-5,-1,14830
-0.620678,-0.817367,-1.94384,-7,15.9375,-28.75,-0.765625,-0.45459,0.176758,-2,9,-27,-3,-7,0,-4,-3,14848
-0.57248,-0.779976,-2.02633,-22.9375,55.5625,-74.5,-0.55957,-0.0673828,0.507324,-4,9,5,-12,-5,-5,-10,1,14865
-0.57248,-0.779976,-2.02633,-22.9375,55.5625,-74.5,-0.55957,-0.0673828,0.507324,0,0,60,38,16,2,11,3,14882
-0.517698,-0.75404,-2.10667,-43.875,81.125,-98.375,-0.378418,0.279785,1.10303,5,-10,26,-19,-2,0,13,-2,14899
-0.462657,-0.739957,-2.25258,-72.5,81.8125,-138.438,0.446289,1.16211,2.59766,8,11,-19,1,-8,-6,-11,-6,14964
-0.462657,-0.739957,-2.25258,-72.5,81.8125,-138.438,0.446289,1.16211,2.59766,9,5,26,33,10,9,69,-4,14982
-0.428537,-0.683698,-2.4722,-117.063,140.188,-134.188,1.19629,1.25195,2.10986,11,-16,-11,4,14,-5,70,16,14997
-0.432502,-0.655625,-2.54708,-144.625,143.563,-119.125,1.125,1.10596,1.79053,7,-16,-17,16,4,1,29,7,15015
-0.432502,-0.655625,-2.54708,-144.625,143.563,-119.125,1.125,1.10596,1.79053,-4,-9,18,-13,-15,7,-42,-3,15032
-0.423158,-0.607074,-2.68186,-95.6875,116.438,-94.875,0.758301,0.58252,1.07324,-3,10,23,-15,-10,1,-48,-4,15049
-0.396588,-0.601098,-2.73868,-52.375,87.0625,-81.25,0.781738,0.430664,0.62207,-7,4,0,1,-6,-4,10,-5,15065
-0.396588,-0.601098,-2.73868,-52.375,87.0625,-81.25,0.781738,0.430664,0.62207,-2,7,1,6,1,5,12,-2,15083
-0.396588,-0.601098,-2.73868,-52.375,87.0625,-81.25,0.781738,0.430664,0.62207,0,-1,5,10,3,-3,-5,0,15100
-0.35718,-0.605519,-2.8268,-27.375,44.8125,-72.1875,0.477539,0.258789,0.0634766,-1,-2,-7,-1,-2,1,14,0,15117
-0.341976,-0.612676,-2.85836,-16.3125,31.875,-61.6875,0.40332,0.192383,-0.102051,-1,-4,-9,-5,-3,-2,-7,0,15134
-0.341976,-0.612676,-2.85836,-16.3125,31.875,-61.6875,0.40332,0.192383,-0.102051,-2,-5,-6,-6,2,-3,20,2,15151
-0.321207,-0.635136,-2.89915,-5.1875,14.5,-34.75,0.422363,0.160645,-0.367188,0,-2,1,9,4,-5,29,0,15168
-0.321207,-0.635136,-2.89915,-5.1875,14.5,-34.75,0.422363,0.160645,-0.367188,-2,0,-1,2,0,-1,-5,-2,15185
-0.317442,-0.650007,-2.90753,-4.8125,9.1875,-16.3125,0.500977,0.163086,-0.426758,0,-3,-3,-1,0,-2,-4,-3,15203
-0.317442,-0.650007,-2.90753,-4.8125,9.1875,-16.3125,0.500977,0.163086,-0.426758,3,1,2,10,2,-1,-1,-2,15221
-0.384683,-0.694106,-2.78731,-12.75,-46.3125,78.8125,0.831055,0.404297,0.86084,4,-4,-22,-16,-2,0,-35,-5,15294
-0.390613,-0.701752,-2.73769,58.875,-72.1875,102.5,0.682617,0.609863,1.64795,-1,-1,-3,6,-2,-6,-48,-10,15311
-0.390613,-0.701752,-2.73769,58.875,-72.1875,102.5,0.682617,0.609863,1.64795,-1,2,-36,-53,-18,0,-113,-23,15328
-0.373863,-0.767437,-2.5872,168,-154.375,118.25,0.850586,0.912598,2.07617,-28,-10,31,-3,-24,1,-119,-17,15345
-0.373863,-0.767437,-2.5872,168,-154.375,118.25,0.850586,0.912598,2.07617,-7,28,4,32,33,-26,127,16,15361
-0.385321,-0.802222,-2.51437,114.438,-147.313,100,0.944824,0.697266,2.00342,20,0,-42,-11,32,-17,124,21,15378
-0.385321,-0.802222,-2.51437,114.438,-147.313,100,0.944824,0.697266,2.00342,33,-1,-8,12,8,15,7,5,15395
-0.404635,-0.847247,-2.40343,70.9375,-113.25,80.9375,0.571289,0.416992,1.86084,-3,15,12,-10,-21,12,-112,-11,15411
-0.418888,-0.867902,-2.34922,64.6875,-112.75,76.6875,0.383301,0.464355,1.62988,-8,4,9,-33,-25,7,-88,-11,15428
-0.418888,-0.867902,-2.34922,64.6875,-112.75,76.6875,0.383301,0.464355,1.62988,-8,-5,17,-1,-10,3,-42,-9,15446
-0.418888,-0.867902,-2.34922,64.6875,-112.75,76.6875,0.383301,0.464355,1.62988,-13,-6,14,2,-2,-5,-5,-5,15463
-0.422613,-0.885605,-2.26863,64.625,-92.125,67.1875,-0.081543,0.396973,1.17871,-11,-2,-4,7,8,-9,35,6,15480
-0.414161,-0.886572,-2.2367,68.9375,-78.8125,63.875,-0.124512,0.281738,0.88623,0,-14,1,4,9,-4,37,8,15498
-0.414161,-0.886572,-2.2367,68.9375,-78.8125,63.875,-0.124512,0.281738,0.88623,5,8,0,7,6,-2,-17,1,15515
-0.422555,-0.876726,-2.16551,47.625,-48.0625,60.9375,-0.37207,-0.0175781,0.463867,0,5,-6,1,1,-2,-18,-2,15532
-0.438869,-0.86719,-2.12948,34.125,-36.875,52.5625,-0.495117,-0.178223,0.275391,4,10,0,-2,-1,1,1,2,15549
-0.486846,-0.822614,-2.08706,-15.75,5.625,-12.5625,-0.718262,-0.454102,0.154297,-1,6,-6,-1,3,-2,10,4,15624
-0.486846,-0.822614,-2.08706,-15.75,5.625,-12.5625,-0.718262,-0.454102,0.154297,3,-4,-10,2,1,5,-9,3,15641
-0.473346,-0.789487,-2.1333,-22.8125,29.0625,-62.5625,-0.680176,-0.249023,0.317871,-6,1,-9,1,2,-3,6,1,15658
-0.442642,-0.770297,-2.18739,-35.5,46.4375,-83.625,-0.458496,0,0.652344,3,16,39,-29,-4,-6,12,-1,15675
-0.442642,-0.770297,-2.18739,-35.5,46.4375,-83.625,-0.458496,0,0.652344,2,-26,17,-20,-9,11,-38,-3,15692
-0.395451,-0.751287,-2.32903,-88.5625,77.5625,-135.375,0.0581055,1.31445,2.31299,-1,-47,-51,-11,-16,3,-65,-7,15709
-0.381246,-0.737718,-2.40406,-105.063,95.75,-131.938,0.883301,1.23975,2.68066,-21,18,-35,-7,-5,2,-19,1,15725
-0.381246,-0.737718,-2.40406,-105.063,95.75,-131.938,0.883301,1.23975,2.68066,-13,7,6,17,-6,-7,-20,-9,15743
-0.381246,-0.737718,-2.40406,-105.063,95.75,-131.938,0.883301,1.23975,2.68066,13,4,37,-7,9,-8,37,2,15761
-0.39414,-0.696044,-2.54084,-148.313,127.563,-128.625,1.26221,1.04297,2.18359,10,4,20,11,11,-4,49,8,15778
-0.39944,-0.665075,-2.61604,-150.75,146.375,-120.438,1.01855,1.04785,1.84131,3,-14,-31,-9,7,-2,36,4,15795
-0.39944,-0.665075,-2.61604,-150.75,146.375,-120.438,1.01855,1.04785,1.84131,-3,-21,-1,-27,-5,4,-10,-2,15812
-0.390264,-0.612388,-2.75246,-103.5,116.75,-96.5,0.618164,0.740234,1.17041,5,-15,9,0,-6,5,-39,-4,15829
-0.364565,-0.597342,-2.81235,-71,92.8125,-80.0625,0.583008,0.571289,0.815918,-9,10,1,6,-5,-7,-23,-1,15845
-0.364565,-0.597342,-2.81235,-71,92.8125,-80.0625,0.583008,0.571289,0.815918,0,-1,7,-3,0,0,-17,-5,15862
-0.364565,-0.597342,-2.81235,-71,92.8125,-80.0625,0.583008,0.571289,0.815918,0,-1,6,0,-2,0,5,-3,15880
-0.290217,-0.579755,-2.94941,5,36.5,-21.625,0.435059,0.0668945,-0.300781,-3,1,0,0,-4,-2,6,-2,15947
-0.290217,-0.579755,-2.94941,5,36.5,-21.625,0.435059,0.0668945,-0.300781,-1,1,0,-1,-2,-4,9,-2,15964
-0.281572,-0.583654,-2.95936,11.75,34.4375,-16.75,0.455566,0.0532227,-0.356445,0,-1,2,2,2,-2,0,-2,15982
-0.281572,-0.583654,-2.95936,11.75,34.4375,-16.75,0.455566,0.0532227,-0.356445,0,-5,-3,3,0,-2,16,0,16000
-0.266992,-0.591589,-2.96238,9.5,25.6875,20.5,0.503906,0.272949,-0.274902,2,2,4,-2,1,-2,-4,-2,16017
-0.269569,-0.599362,-2.94626,1.75,5.5625,52.875,0.5625,0.34375,-0.163086,-5,-9,-5,-15,-8,-4,-13,-5,16033
-0.269569,-0.599362,-2.94626,1.75,5.5625,52.875,0.5625,0.34375,-0.163086,0,1,-3,-7,4,1,0,-1,16051
-0.320231,-0.610302,-2.87209,-33.3125,-22,103.125,0.713867,0.270996,0.441406,-4,1,41,-23,2,-5,59,3,16068
-0.320231,-0.610302,-2.87209,-33.3125,-22,103.125,0.713867,0.270996,0.441406,8,19,1,4,-8,-2,-28,-7,16085
-0.34695,-0.608552,-2.82575,-17.3125,-34.6875,115.25,0.744141,0.746094,1.34424,5,32,58,101,27,15,-102,-4,16102
-0.34695,-0.608552,-2.82575,-17.3125,-34.6875,115.25,0.744141,0.746094,1.34424,-11,-21,63,1,-26,2,-88,-14,16119
-0.370795,-0.694553,-2.63242,193.938,-234.188,171.938,0.847168,0.377441,2.02588,-19,-4,-9,-19,-12,-11,-30,-9,16136
-0.366792,-0.749539,-2.53248,200.75,-224.313,143.875,1.31055,1.00977,2.18896,-49,3,-59,-30,13,-28,122,9,16152
-0.366792,-0.749539,-2.53248,200.75,-224.313,143.875,1.31055,1.00977,2.18896,55,-42,23,-9,23,11,73,3,16170
-0.428977,-0.821048,-2.38791,53.5,-125.063,82.6875,0.936035,0.205078,2.15137,59,-21,-33,-24,-13,16,-29,1,16187
-0.428977,-0.821048,-2.38791,53.5,-125.063,82.6875,0.936035,0.205078,2.15137,-7,7,8,-24,-48,12,-128,-19,16204
-0.485311,-0.89571,-2.20018,36.4375,-105.438,77.4375,-0.197754,0.346191,1.07275,13,2,-10,-5,6,0,0,6,16280
-0.485311,-0.89571,-2.20018,36.4375,-105.438,77.4375,-0.197754,0.346191,1.07275,5,6,-5,-4,-2,3,20,1,16297
-0.517141,-0.897744,-2.09643,62.125,-84.0625,69.3125,-0.283691,-0.0585938,0.490723,3,9,1,-2,-2,0,0,-1,16315
-0.523378,-0.902542,-2.05048,82.8125,-82.875,50.6875,-0.358887,-0.103516,0.325195,1,5,-4,-4,-2,-1,-1,-1,16332
-0.523378,-0.902542,-2.05048,82.8125,-82.875,50.6875,-0.358887,-0.103516,0.325195,-4,-14,1,-2,-2,0,8,-1,16348
-0.519871,-0.903503,-2.00678,38.1875,-28.0625,-0.875,-0.471191,-0.276855,0.146973,-5,3,1,-5,-1,-4,14,-1,16365
-0.519871,-0.903503,-2.00678,38.1875,-28.0625,-0.875,-0.471191,-0.276855,0.146973,-3,-1,0,3,2,-1,9,0,16383
-0.523381,-0.889187,-2.00947,-5.5,8,-15.8125,-0.599609,-0.364258,0.143066,-5,-3,-12,-13,-1,-3,0,2,16399
-0.523381,-0.889187,-2.00947,-5.5,8,-15.8125,-0.599609,-0.364258,0.143066,-2,0,-1,8,-2,-4,3,-1,16415
-0.5083,-0.8399,-2.05759,-22.8125,51.875,-47,-0.729004,-0.38623,0.290039,-2,-4,-1,-7,-4,-1,-6,1,16433
-0.5083,-0.8399,-2.05759,-22.8125,51.875,-47,-0.729004,-0.38623,0.290039,-2,-5,11,-10,0,0,-8,-3,16450
-0.491501,-0.811502,-2.09906,-38.9375,65.625,-55.75,-0.680176,-0.190918,0.328125,-1,21,19,8,-1,0,-4,-2,16468
-0.491501,-0.811502,-2.09906,-38.9375,65.625,-55.75,-0.680176,-0.190918,0.328125,4,-24,11,-35,-8,-1,24,2,16486
-0.445336,-0.754708,-2.22076,-71.0625,114.688,-88.125,-0.277344,0.479004,1.51025,6,-15,-19,21,-5,-2,-40,-2,16503
-0.431381,-0.740883,-2.27753,-70.5625,86.625,-91.25,-0.0864258,1.27441,2.15723,-30,26,47,-3,-18,-16,-63,-10,16520
-0.425681,-0.727907,-2.3306,-85.75,80.625,-87.25,0.868164,0.914551,2.48291,-31,54,8,-38,-39,12,-76,-9,16537
-0.500502,-0.622972,-2.52438,-140.688,137.438,-52.3125,1.18799,0.800293,1.58496,8,-28,3,-1,3,9,-13,4,16606
-0.500502,-0.622972,-2.52438,-140.688,137.438,-52.3125,1.18799,0.800293,1.58496,-5,-5,-10,-15,-17,9,-71,-9,16623
-0.501788,-0.59274,-2.5748,-102.875,132.188,-49.8125,0.927734,0.624512,1.31592,-13,3,-6,-5,-4,-1,-14,-2,16640
-0.501788,-0.59274,-2.5748,-102.875,132.188,-49.8125,0.927734,0.624512,1.31592,-5,6,-2,-4,4,-6,24,-1,16658
-0.464599,-0.560954,-2.66765,-26.25,90.1875,-60.4375,0.68457,0.371582,0.629395,1,-2,-12,4,5,-1,16,1,16675
-0.436334,-0.556696,-2.70914,-6.375,67.4375,-61.875,0.500977,0.283691,0.396484,6,2,-7,2,2,1,8,-1,16692
-0.436334,-0.556696,-2.70914,-6.375,67.4375,-61.875,0.500977,0.283691,0.396484,-5,0,2,-4,-4,-2,-22,-5,16709
-0.384057,-0.565187,-2.77182,23.9375,34.3125,-59.4375,0.407227,0.10791,-0.0981445,-3,-2,-5,-3,-1,1,4,0,16726
-0.360489,-0.575344,-2.79717,32.1875,32,-55.8125,0.466797,0.0537109,-0.315918,-4,-2,-2,6,2,0,14,1,16743
-0.360489,-0.575344,-2.79717,32.1875,32,-55.8125,0.466797,0.0537109,-0.315918,-5,-2,-3,2,-1,0,7,-4,16760
-0.337358,-0.584947,-2.81918,34.625,38.0625,-44.5625,0.549316,0.101074,-0.438965,-2,-5,-7,2,5,-4,18,0,16778
-0.321001,-0.596089,-2.83454,15.8125,31.1875,-23.1875,0.611816,0.273926,-0.431641,0,-4,-3,0,2,-1,11,3,16795
-0.314616,-0.60694,-2.83691,0.0625,17.8125,10.125,0.599121,0.374512,-0.335938,4,7,8,6,0,0,20,2,16812
-0.321832,-0.621387,-2.81682,-7.6875,-9,61.4375,0.688965,0.440918,-0.222656,0,-5,-6,-11,-8,-2,-6,-6,16829
-0.350732,-0.625598,-2.77265,-14.25,-34.5,100.625,0.781738,0.399414,-0.0537109,5,8,21,1,-6,2,-22,-5,16847
-0.385974,-0.632336,-2.72097,-19.3125,-55.625,111.375,0.765137,0.246582,0.40625,-2,-6,0,-12,-23,-15,10,-2,16865
-0.435109,-0.707231,-2.50154,121.75,-178.813,144.875,0.730469,0.574707,2.40771,-7,-3,70,19,-1,1,-30,-3,16922
-0.435109,-0.707231,-2.50154,121.75,-178.813,144.875,0.730469,0.574707,2.40771,-12,-12,-7,24,35,-20,117,14,16940
-0.443603,-0.744624,-2.40392,161.688,-186.125,144.063,0.975098,0.416992,2.16357,37,9,5,5,35,-17,127,20,16957
-0.435195,-0.774665,-2.33401,147.375,-150.563,105.063,1.10303,0.411133,1.86914,41,12,24,14,16,6,40,4,16974
-0.455391,-0.795325,-2.27186,68.0625,-107.813,88.1875,0.867676,0.772949,1.875,-26,3,22,1,-24,21,-126,-15,16990
-0.455391,-0.795325,-2.27186,68.0625,-107.813,88.1875,0.867676,0.772949,1.875,-1,-31,15,8,-16,7,-60,-9,17007
-0.450029,-0.798749,-2.24469,5.4375,-99.125,86.5,0.572266,0.609863,1.78564,-22,-5,-20,12,3,-9,17,-1,17023
-0.450656,-0.796997,-2.21653,3.9375,-88.1875,79,0.256836,0.424805,1.56592,0,2,-19,-8,12,-10,48,5,17041
-0.446867,-0.794641,-2.18884,23.9375,-81.9375,70.9375,-0.0136719,0.388672,1.25439,9,15,-15,3,1,-15,54,5,17058
-0.441362,-0.793158,-2.15979,42.125,-79.9375,64.4375,-0.176758,0.286133,1.01953,8,2,-12,-1,0,-2,15,3,17075
-0.435804,-0.794373,-2.12748,60.9375,-77.5625,58.9375,-0.214844,0.137695,0.75293,2,1,-6,-5,-1,1,-8,-1,17092
-0.430249,-0.794702,-2.09674,67.1875,-63.1875,51.125,-0.231445,0.0244141,0.531738,2,-25,1,4,3,3,5,2,17109
-0.430249,-0.794702,-2.09674,67.1875,-63.1875,51.125,-0.231445,0.0244141,0.531738,-4,19,-1,0,4,3,-10,-5,17126
-0.426303,-0.792041,-2.0706,62,-49.0625,38.4375,-0.371582,-0.097168,0.367188,0,4,-1,-5,-1,3,-2,-1,17143
-0.436608,-0.775497,-2.03899,14.3125,-11.4375,0.1875,-0.592285,-0.424805,0.106445,0,-3,2,-3,-3,5,33,12,17160
-0.436608,-0.775497,-2.03899,14.3125,-11.4375,0.1875,-0.592285,-0.424805,0.106445,-4,4,7,9,-5,-17,3,8,17177
-0.454721,-0.733665,-2.08696,-26.9375,7.625,-74.9375,-0.82959,-0.388672,0.117188,10,59,38,45,7,4,0,-6,17250
-0.445609,-0.723941,-2.12326,-41.3125,5.875,-85.4375,-0.834473,-0.212402,0.307617,-13,-69,-29,-22,5,2,-6,-4,17267
-0.424491,-0.712434,-2.1652,-42,-1.875,-77.8125,-0.651367,0.0834961,0.871094,7,26,-9,24,-1,9,-14,-1,17283
-0.41052,-0.72195,-2.19829,-22.4375,4.0625,-76.3125,-0.0537109,0.87793,1.46484,-1,-14,-18,40,-4,1,-1,-3,17300
-0.406245,-0.728291,-2.24941,-84.5,26.875,-107.75,1.25244,1.45166,2.27734,-9,-15,-5,-38,-10,-4,-19,2,17317
-0.40359,-0.720015,-2.31397,-115.188,76.4375,-118.125,1.75732,1.44922,2.5874,-14,-5,-16,-41,0,-1,11,-4,17334
-0.401893,-0.700447,-2.38311,-124.438,110.25,-116.5,1.8916,1.76074,2.40625,-8,-1,-18,-32,4,7,11,-3,17351
-0.393452,-0.672447,-2.45927,-114.25,139.25,-124.375,1.84082,1.53076,2.11621,0,-5,-31,-23,-2,1,-20,-4,17368
-0.39345,-0.637692,-2.53538,-132.938,158.188,-122,1.50635,1.12891,1.72852,1,-3,2,4,5,-12,2,-3,17385
-0.381509,-0.602442,-2.61506,-114.563,166.188,-120.438,1.12744,0.696289,1.37158,7,-1,-11,-33,2,-3,6,0,17402
-0.381509,-0.602442,-2.61506,-114.563,166.188,-120.438,1.12744,0.696289,1.37158,1,-12,1,-5,-3,3,5,1,17420
-0.365667,-0.567886,-2.68867,-84,158.625,-117.625,0.838379,0.574707,1.00635,-2,-2,9,-2,-7,1,-7,-1,17437
-0.349769,-0.538752,-2.75462,-64.3125,137.938,-113.563,0.684082,0.50293,0.712402,-4,1,0,-5,1,-2,8,0,17454
-0.338008,-0.516759,-2.81065,-54.875,110.438,-102.688,0.554688,0.403809,0.455566,0,1,-1,5,1,0,-10,1,17471
-0.321371,-0.508925,-2.85979,-39.375,79.8125,-91.75,0.455566,0.247559,0.221191,0,4,6,-1,-8,4,-19,-4,17488
-0.307153,-0.508651,-2.89905,-19.0625,53.625,-82.9375,0.389648,0.0942383,-0.00439453,-5,2,1,-9,-8,-3,-36,-4,17506
-0.257769,-0.54045,-2.98595,19.125,33,-29.5625,0.547852,0.00390625,-0.628418,3,-2,-5,-1,2,-3,19,0,17582
-0.257769,-0.54045,-2.98595,19.125,33,-29.5625,0.547852,0.00390625,-0.628418,3,-1,-5,-1,4,0,21,2,17599
-0.249802,-0.543132,-2.99474,3.9375,40.75,-8.0625,0.466309,0.224609,-0.456055,3,-1,-5,-1,4,0,21,2,17615
-0.244064,-0.546842,-2.98858,5.0625,21.5625,33.8125,0.465332,0.426758,-0.257813,0,-6,-3,-3,-3,0,7,-1,17632
-0.244064,-0.546842,-2.98858,5.0625,21.5625,33.8125,0.465332,0.426758,-0.257813,-4,0,24,26,2,4,4,2,17649
-0.246855,-0.557466,-2.95716,14.75,-20.4375,89.4375,0.454102,0.436035,-0.074707,-21,8,2,-12,-2,-10,-5,-5,17666
-0.277637,-0.557993,-2.89194,-0.5,-38.0625,161,0.51416,0.708008,0.272461,1,53,21,-32,-3,-12,-1,-6,17683
-0.325806,-0.562082,-2.813,-34.75,-67.0625,191.313,0.804688,0.870117,1.03857,2,-29,-13,-36,10,0,64,6,17700
-0.355554,-0.597938,-2.73899,13,-157,145.125,1.17432,0.696289,1.66846,6,14,46,-37,-4,3,-31,-2,17717
-0.354854,-0.632865,-2.65134,146.875,-165.313,157.313,0.996094,0.363281,2.4165,24,-39,-43,26,-31,16,-128,-16,17734
-0.336699,-0.665348,-2.56028,209.688,-157.938,164.25,1.12695,0.979004,2.35205,-11,-26,-40,8,58,-32,127,27,17752
-0.340455,-0.696582,-2.47523,142.688,-147.375,149,1.04785,0.819336,2.1875,44,-24,-69,-2,49,-4,124,21,17769
-0.351307,-0.723704,-2.40879,92.9375,-122.438,109.438,0.934082,0.65625,1.97168,56,-25,-33,30,19,18,42,13,17786
-0.351307,-0.723704,-2.40879,92.9375,-122.438,109.438,0.934082,0.65625,1.97168,33,32,0,-17,-32,20,-118,-17,17803
-0.328046,-0.73752,-2.38502,41.75,-99.9375,85.25,0.744141,0.82373,1.70508,33,32,0,-17,-32,20,-118,-17,17820
-0.328046,-0.73752,-2.38502,41.75,-99.9375,85.25,0.744141,0.82373,1.70508,-43,14,24,-1,-34,4,-118,-25,17837
-0.370194,-0.785935,-2.18194,61.0625,-87.0625,75.6875,0.00585938,0.17627,0.680664,2,1,-9,-4,-2,2,15,-1,17910
-0.370194,-0.785935,-2.18194,61.0625,-87.0625,75.6875,0.00585938,0.17627,0.680664,2,-3,-3,-3,-5,2,-5,-2,17927
-0.363451,-0.796299,-2.11927,62,-58.6875,45.625,-0.273438,0.00585938,0.334961,-3,-6,-4,-4,-1,1,0,-3,17944
-0.3637,-0.792977,-2.09907,44.25,-37.1875,25.6875,-0.505371,-0.144531,0.186523,-2,-7,-4,-2,-4,-6,0,-2,17961
-0.3637,-0.792977,-2.09907,44.25,-37.1875,25.6875,-0.505371,-0.144531,0.186523,-2,3,1,4,1,5,-4,5,17979
-0.368241,-0.779585,-2.08918,17.75,-8.9375,5.6875,-0.717773,-0.286621,0.10498,-8,-19,-4,-6,-1,-5,16,-6,17996
-0.37784,-0.757183,-2.08931,-11.5,15.125,-10.9375,-0.904785,-0.381836,0.0639648,3,22,-3,5,4,-2,4,1,18013
-0.383334,-0.727622,-2.10179,-24.5,33.3125,-30.375,-1.04199,-0.391602,0.134766,8,-4,-15,-10,-2,-3,47,24,18030
-0.383334,-0.727622,-2.10179,-24.5,33.3125,-30.375,-1.04199,-0.391602,0.134766,5,23,32,-7,8,10,18,10,18047
-0.377632,-0.695374,-2.12798,-26.625,37.9375,-51.3125,-1.16211,-0.249512,0.280762,-2,17,-41,-7,-15,-8,-26,-6,18064
-0.326788,-0.63543,-2.22918,-25.4375,97.5,-101.125,-0.638672,0.347656,1.11816,4,61,-3,31,6,-4,13,-2,18081
-0.326788,-0.63543,-2.22918,-25.4375,97.5,-101.125,-0.638672,0.347656,1.11816,16,4,42,-8,3,2,-12,-5,18099
-0.286779,-0.606535,-2.29951,-2.6875,128.313,-131.5,-0.074707,1.13477,2.08398,-6,-70,-24,-31,-7,-5,-12,-3,18116
-0.248428,-0.579766,-2.37978,-18.8125,124.313,-163.313,1.06689,1.57471,2.57617,-43,21,26,42,-4,11,-76,-12,18133
-0.243399,-0.542923,-2.44342,-82.625,139.875,-124.5,1.96875,1.92432,2.51172,-39,45,1,34,-22,15,-116,-25,18150
-0.247279,-0.506642,-2.51904,-119.813,146.5,-156.688,1.69775,1.29053,2.24951,4,-6,14,2,-30,10,-128,-23,18166
-0.24499,-0.424548,-2.6724,-90.9375,156.813,-161.438,1.04199,0.998047,1.65479,4,-50,-12,-19,-1,15,0,-6,18226
-0.243142,-0.394003,-2.74434,-94.875,134.188,-153.25,0.761719,0.851563,1.34863,-13,-12,20,-20,-33,19,-128,-18,18243
-0.247873,-0.370914,-2.80486,-92.4375,109.188,-132.563,0.731445,0.677246,0.929688,-16,14,15,1,-21,2,-80,-11,18260
-0.252547,-0.352769,-2.85485,-74.3125,90.375,-111.625,0.65625,0.497559,0.608887,-11,14,7,0,-4,-10,-7,1,18278
-0.247907,-0.345862,-2.89951,-59.75,74.25,-94.25,0.516113,0.382813,0.347656,-11,14,7,0,-4,-10,-7,1,18295
-0.244185,-0.343102,-2.93485,-44.3125,61.5,-74.9375,0.51709,0.318848,0.102051,-3,-2,2,-1,-5,1,-30,-6,18312
-0.242909,-0.344297,-2.96203,-34.875,48.4375,-59,0.50293,0.227539,-0.10791,-2,-3,3,-4,-7,-6,-34,3,18328
-0.243187,-0.348191,-2.98311,-23.4375,38.3125,-48.4375,0.459961,0.106445,-0.279785,-5,6,-3,-1,0,-8,23,1,18345
-0.244947,-0.354591,-2.99778,-14.5,30.875,-34.8125,0.474609,0.0263672,-0.399414,-10,-21,-9,5,14,-10,78,1,18363
-0.244776,-0.363744,-3.00445,-2.0625,21.9375,-14.5625,0.521973,0.0454102,-0.451172,8,-2,-9,-4,11,0,13,-15,18380
-0.244776,-0.363744,-3.00445,-2.0625,21.9375,-14.5625,0.521973,0.0454102,-0.451172,16,-7,-16,-7,-4,4,13,4,18397
-0.244722,-0.375551,-3.00325,-3.625,8.8125,7.6875,0.522949,0.182617,-0.398926,-2,5,2,-5,-1,2,7,2,18414
-0.24872,-0.391414,-2.98919,-11.9375,-15.625,40.9375,0.517578,0.303711,-0.233398,-7,7,-8,-5,-1,-5,4,-7,18432
-0.258801,-0.415247,-2.95858,-10.75,-47.125,78,0.578125,0.293457,-0.140625,-2,10,-34,-21,-5,-3,1,1,18449
-0.258801,-0.415247,-2.95858,-10.75,-47.125,78,0.578125,0.293457,-0.140625,-1,3,-9,1,-1,3,-3,3,18467
-0.277233,-0.430721,-2.91432,-5.625,-64.75,104.5,0.675293,0.257813,0.195313,0,2,64,29,5,5,3,-5,18484
-0.278981,-0.551977,-2.60733,178.625,-176,176.813,1.00732,0.955566,2.2207,-24,-9,-46,52,101,-68,126,47,18557
-0.263834,-0.591611,-2.53143,160.938,-158.438,145.75,0.887207,1.04688,2.08643,108,-21,-23,70,96,-17,127,52,18575
-0.263405,-0.62503,-2.45688,123.438,-138.125,144.438,0.747559,0.958496,1.88232,89,-16,-45,-62,-12,38,-24,-5,18591
-0.271488,-0.653634,-2.39198,70.4375,-127.875,133.188,0.739746,0.812988,1.76025,18,31,24,-5,-36,39,-128,-15,18608
-0.290905,-0.676849,-2.32954,39.1875,-114.438,126.313,0.469727,0.745605,1.57031,-22,59,21,1,-46,11,-128,-36,18624
-0.290905,-0.676849,-2.32954,39.1875,-114.438,126.313,0.469727,0.745605,1.57031,-70,-16,8,16,-14,-9,-73,-11,18641
-0.321366,-0.695906,-2.26841,10.4375,-105.438,120.063,0.224609,0.602539,1.35547,-63,-33,6,-8,-5,-9,-22,0,18658
-0.34864,-0.715985,-2.21337,14.4375,-105.75,98.6875,0.0581055,0.38916,1.12793,24,-18,-4,9,15,-7,27,10,18675
-0.361874,-0.736332,-2.16591,45.0625,-101.5,77.6875,-0.0761719,0.28125,0.892578,25,-18,-10,-6,8,-2,50,7,18693
-0.35901,-0.748065,-2.13119,55.5,-93.3125,62.75,-0.13916,0.191406,0.612793,32,31,-10,0,11,8,62,17,18710
-0.362184,-0.754145,-2.09935,42.25,-67.75,56.3125,-0.188477,0.0839844,0.40625,10,19,-10,-2,-4,-12,-44,6,18726
-0.372921,-0.75053,-2.0718,23.375,-37.75,47.3125,-0.35791,-0.0771484,0.210449,3,-1,-4,-1,-1,1,-31,-1,18743
-0.372921,-0.75053,-2.0718,23.375,-37.75,47.3125,-0.35791,-0.0771484,0.210449,1,-2,-1,-6,-5,1,19,-7,18761
-0.388642,-0.73634,-2.04896,9.75,-10,37.1875,-0.575684,-0.249512,0.0664063,0,18,4,0,-3,10,42,-18,18777
-0.400962,-0.715083,-2.03575,7.5625,5.9375,15.875,-0.799805,-0.391602,0.0322266,-6,-2,-3,2,-1,0,12,-3,18794
-0.399247,-0.690727,-2.03756,14.1875,19,-7.625,-0.925781,-0.28125,0.0507813,0,-9,-1,-7,-1,-9,2,2,18811
-0.372622,-0.641524,-2.09411,-32.3125,54.875,-60.5625,-0.722656,-0.00195313,0.22998,2,7,3,0,-2,-8,-3,-7,18864
-0.358506,-0.605699,-2.14281,-53.9375,80.6875,-80.3125,-0.579102,-0.012207,0.638184,-1,5,52,21,3,0,-3,8,18881
-0.325611,-0.579406,-2.20302,-13.625,99.875,-108.375,-0.404297,0.315918,1.4585,37,75,15,16,5,-1,4,-2,18898
-0.325611,-0.579406,-2.20302,-13.625,99.875,-108.375,-0.404297,0.315918,1.4585,-26,4,29,125,10,4,-22,4,18916
-0.24661,-0.553485,-2.35265,-30.125,86.0625,-178.938,0.852539,1.58447,2.44189,-22,-20,12,12,-13,16,-76,-27,18933
-0.256315,-0.528623,-2.42702,-138.125,114.25,-159.375,1.5249,1.65625,2.46729,15,23,17,-64,-33,7,-118,-30,18950
-0.271909,-0.497768,-2.50782,-158.25,137.938,-171.688,1.25977,1.23584,2.28809,-60,1,36,-16,-36,9,-127,-21,18966
-0.282295,-0.461151,-2.59168,-140.625,159.563,-176.75,1.01807,1.11816,1.97705,27,18,-14,25,24,-30,119,26,18983
-0.282295,-0.461151,-2.59168,-140.625,159.563,-176.75,1.01807,1.11816,1.97705,20,-22,-37,5,45,-16,125,26,19000
-0.293709,-0.426401,-2.67101,-130.313,153.625,-168.813,0.874512,1.10742,1.69336,13,-35,-14,-8,29,-4,117,9,19017
-0.304652,-0.397515,-2.7415,-132.688,137.875,-141.813,0.808594,0.946289,1.32324,12,-47,-23,-26,3,13,-1,-6,19034
-0.31816,-0.375048,-2.79933,-115.5,114.875,-118.438,0.765137,0.648926,0.876953,-8,-3,4,-13,-21,12,-66,-14,19052
-0.31816,-0.375048,-2.79933,-115.5,114.875,-118.438,0.765137,0.648926,0.876953,-2,15,11,-9,-16,15,-76,-10,19069
-0.327727,-0.357143,-2.84803,-86.875,97.8125,-100.688,0.699707,0.470215,0.536621,-10,1,-1,-1,-4,-9,-12,-7,19087
-0.327941,-0.353859,-2.92137,-56.3125,58.875,-59.125,0.568848,0.334473,0.0258789,-4,-7,-1,-2,-4,-6,-3,-7,19105
-0.327941,-0.353859,-2.92137,-56.3125,58.875,-59.125,0.568848,0.334473,0.0258789,-3,-3,-4,4,1,-7,2,3,19122
-0.3329,-0.40171,-2.95612,1.125,10.625,9,0.737793,0.17041,-0.507813,-2,-19,-1,2,1,1,5,2,19194
-0.3329,-0.40171,-2.95612,1.125,10.625,9,0.737793,0.17041,-0.507813,1,-4,-3,-1,-1,-4,18,-7,19212
-0.338661,-0.433025,-2.93051,0.0625,-16,50.9375,0.646973,0.275879,-0.226563,1,0,-1,-2,-1,-2,8,3,19230
-0.338661,-0.433025,-2.93051,0.0625,-16,50.9375,0.646973,0.275879,-0.226563,2,5,-7,-15,-4,6,-17,-4,19247
-0.342129,-0.457299,-2.89916,20.9375,-47.625,73.3125,0.700195,0.175293,-0.149902,-12,-39,20,-16,-5,-1,5,6,19265
-0.343078,-0.479496,-2.86247,24.0625,-58.0625,89.9375,0.741211,0.23877,0.291016,-4,11,-84,43,3,3,30,-3,19282
-0.346393,-0.494437,-2.81083,43.625,-84,117.625,0.708496,0.704102,1.12109,-7,22,60,-38,-9,6,-58,-2,19300
-0.350112,-0.523757,-2.73108,100.688,-147,159.125,0.804688,1.0249,1.72314,25,16,53,-42,-28,30,-123,-13,19317
-0.345389,-0.562955,-2.6443,142.063,-178.188,162.063,0.983887,0.736328,2.17822,-88,-14,-54,-18,21,-46,120,3,19334
-0.32741,-0.601336,-2.55935,185.438,-171.25,155.5,0.991699,1.02197,2.37646,-7,23,-62,62,57,-29,127,20,19351
-0.307855,-0.639039,-2.48761,175.313,-154.938,125.188,0.983398,1.11914,2.18848,38,5,-62,-7,48,-24,127,23,19368
-0.307855,-0.639039,-2.48761,175.313,-154.938,125.188,0.983398,1.11914,2.18848,39,11,24,-10,1,12,-20,6,19385
-0.292813,-0.693315,-2.37491,99.125,-106.938,96.6875,0.583496,0.826172,1.76611,3,27,31,9,-18,12,-94,-7,19402
-0.292813,-0.693315,-2.37491,99.125,-106.938,96.6875,0.583496,0.826172,1.76611,0,-38,33,9,-17,7,-76,-11,19418
-0.266044,-0.695893,-2.34556,65.0625,-84.75,99.9375,0.231934,0.843262,1.54834,0,-38,33,9,-17,7,-76,-11,19435
-0.266044,-0.695893,-2.34556,65.0625,-84.75,99.9375,0.231934,0.843262,1.54834,-29,-13,20,17,-4,-6,-3,-4,19451
-0.263794,-0.697715,-2.21731,39.75,-67,61.5625,-0.391113,0.178711,0.484863,12,9,-6,-8,-4,1,-1,0,19517
-0.265362,-0.699228,-2.19096,37,-56.0625,50.6875,-0.434082,0.0532227,0.330566,3,-8,1,1,-3,-3,14,-2,19535
-0.271105,-0.693967,-2.17123,21.25,-30.1875,35.625,-0.463867,-0.0834961,0.227051,-6,-11,-1,-5,-3,-1,-7,-7,19551
-0.271105,-0.693967,-2.17123,21.25,-30.1875,35.625,-0.463867,-0.0834961,0.227051,0,-1,-1,4,0,4,-7,1,19568
-0.279313,-0.678519,-2.16218,1.625,-5.0625,12.1875,-0.661621,-0.222168,0.189941,-2,1,8,4,2,12,-11,2,19586
-0.286151,-0.65545,-2.16343,-9.8125,17,-8.1875,-0.782715,-0.283691,0.160645,-6,-1,-3,1,0,-4,7,0,19604
-0.287267,-0.628398,-2.17646,-14.625,30.5625,-30.5,-0.831055,-0.27002,0.195313,3,-3,-3,5,1,-3,-11,-2,19620
-0.287267,-0.628398,-2.17646,-14.625,30.5625,-30.5,-0.831055,-0.27002,0.195313,6,55,21,17,1,-9,14,1,19637
-0.261201,-0.574425,-2.24639,-12.1875,44.4375,-95.6875,-0.605957,-0.157715,0.48291,-1,-7,-12,-6,-8,-10,-3,5,19653
-0.236567,-0.563544,-2.30196,-19,50.125,-123.313,-0.433105,0.0512695,0.765625,5,-1,22,-9,-2,-9,-4,5,19670
-0.236567,-0.563544,-2.30196,-19,50.125,-123.313,-0.433105,0.0512695,0.765625,0,-22,-34,-22,-5,-3,14,1,19686
-0.205513,-0.548799,-2.37007,-25.625,62.125,-148.438,-0.196777,0.494141,1.44531,14,-49,35,-18,-8,7,-2,-5,19703
-0.205513,-0.548799,-2.37007,-25.625,62.125,-148.438,-0.196777,0.494141,1.44531,5,-92,112,-71,-18,10,-12,-8,19720
-0.182444,-0.541503,-2.44008,-38.1875,53.1875,-164.375,0.144043,1.4624,2.17383,-41,80,30,-32,-16,-5,-50,-9,19737
-0.197918,-0.524442,-2.59079,-166.813,75.25,-165.5,1.30713,1.74121,2.22705,1,-31,-10,53,-3,1,-30,-3,19753
-0.215987,-0.507863,-2.66405,-155.563,83.8125,-169.188,1.20313,1.42139,2.03467,6,14,-25,-11,6,-2,18,1,19770
-0.278238,-0.418499,-2.89728,-113.375,91.75,-93.3125,0.66748,0.630371,0.726074,8,7,-1,-14,-18,11,-97,-11,19854
-0.278238,-0.418499,-2.89728,-113.375,91.75,-93.3125,0.66748,0.630371,0.726074,-12,4,7,-5,-10,8,-26,-10,19871
-0.278238,-0.418499,-2.89728,-113.375,91.75,-93.3125,0.66748,0.630371,0.726074,-12,5,-1,0,-9,-6,-4,-1,19888
-0.271235,-0.400884,-2.99844,-43.1875,46.375,-44.5625,0.446289,0.318848,0.0834961,-2,6,-1,2,-3,0,-10,-9,19906
-0.271235,-0.400884,-2.99844,-43.1875,46.375,-44.5625,0.446289,0.318848,0.0834961,-2,1,1,-4,-4,1,-26,1,19923
-0.272244,-0.403648,-3.01504,-33.0625,31.375,-31.625,0.417969,0.207031,-0.0581055,-13,-13,5,4,-1,-4,8,-7,19939
-0.274494,-0.410828,-3.02456,-22.125,15.4375,-19.5,0.388672,0.131836,-0.172852,-6,-5,-5,1,6,-5,36,5,19955
-0.277454,-0.42239,-3.0277,-11.4375,3,-8.3125,0.407715,0.0688477,-0.285156,3,-1,-4,0,4,-4,23,0,19973
-0.277454,-0.42239,-3.0277,-11.4375,3,-8.3125,0.407715,0.0688477,-0.285156,1,3,-7,-1,3,-5,17,3,19990
-0.277454,-0.42239,-3.0277,-11.4375,3,-8.3125,0.407715,0.0688477,-0.285156,7,5,-2,-1,9,-1,17,2,20007
-0.295278,-0.449714,-3.01653,-23.5,-1.8125,25.5,0.535645,0.179688,-0.341309,2,-6,-4,1,0,-3,6,1,20025
-0.295278,-0.449714,-3.01653,-23.5,-1.8125,25.5,0.535645,0.179688,-0.341309,-3,-5,-10,-9,-3,-1,-13,-21,20042
-0.305645,-0.467796,-2.99922,-22,-18.375,48.5,0.622559,0.32373,-0.263184,-1,-37,-2,-2,3,-1,18,8,20059
-0.305645,-0.467796,-2.99922,-22,-18.375,48.5,0.622559,0.32373,-0.263184,-14,4,10,-14,2,-5,22,5,20077
-0.330615,-0.516453,-2.93817,-8.75,-45.3125,81,0.835938,0.240723,0.0678711,-1,0,17,7,2,-1,29,3,20093
-0.324998,-0.531293,-2.90774,6.125,-47.5625,96,0.896973,0.600586,0.937012,12,-15,-33,56,-7,-2,-16,1,20110
-0.352799,-0.661416,-2.5882,126.875,-157.25,134,1.04492,0.768066,2.12354,89,-32,-35,-6,32,21,76,12,20180
-0.35664,-0.688656,-2.52079,109.75,-125.625,114.688,0.943848,0.765137,2.01904,-1,14,1,-20,-16,16,-50,-8,20198
-0.372399,-0.714008,-2.45978,67.375,-115.625,98.625,0.692871,0.75293,1.91992,3,14,3,-3,-9,15,-44,-3,20214
-0.383765,-0.735829,-2.40559,55.6875,-117.5,92.4375,0.291504,0.561523,1.69238,-3,-5,15,1,-18,6,-68,-4,20231
-0.383765,-0.735829,-2.40559,55.6875,-117.5,92.4375,0.291504,0.561523,1.69238,-5,-13,4,6,-9,1,-27,-3,20248
-0.423452,-0.773874,-2.29266,44.25,-108.75,91.1875,-0.249023,0.258789,0.979492,0,22,3,3,-3,-3,-16,0,20265
-0.423452,-0.773874,-2.29266,44.25,-108.75,91.1875,-0.249023,0.258789,0.979492,-6,10,3,2,6,-1,8,2,20282
-0.440295,-0.791868,-2.23195,69.9375,-112.688,89.3125,-0.421875,0.103027,0.790527,-6,4,-3,-2,-3,-8,10,-10,20300
-0.449143,-0.810578,-2.17476,89.9375,-108.5,77.3125,-0.358398,-0.0449219,0.582031,-1,2,1,-1,-2,0,-15,-1,20317
-0.45142,-0.814367,-2.1314,78.25,-81.375,61.5625,-0.285645,-0.0810547,0.442871,-3,-13,-3,-6,-5,0,5,1,20334
-0.455699,-0.810386,-2.10316,43.3125,-50,40.6875,-0.369141,-0.124512,0.400879,-3,4,-1,1,-3,-11,2,-2,20350
-0.455699,-0.810386,-2.10316,43.3125,-50,40.6875,-0.369141,-0.124512,0.400879,-5,-8,-4,-1,3,-1,0,-3,20367
-0.462427,-0.796978,-2.09116,7.625,-17.25,15.9375,-0.529785,-0.224121,0.374512,-4,-4,5,3,13,10,-6,2,20384
-0.46495,-0.777256,-2.09692,-12.9375,11.0625,-13.9375,-0.655273,-0.310059,0.335449,-2,-28,-7,-5,-20,-20,3,0,20402
-0.453098,-0.754405,-2.1239,-14.8125,34.9375,-50.4375,-0.710938,-0.29541,0.345215,3,15,-3,-2,2,3,-7,-3,20419
-0.453098,-0.754405,-2.1239,-14.8125,34.9375,-50.4375,-0.710938,-0.29541,0.345215,-4,-12,-2,0,5,5,6,1,20436
-0.371505,-0.693032,-2.3108,-75.8125,126.125,-135.813,-0.130371,0.128906,0.618164,-5,-1,-9,-5,-16,0,-15,-1,20496
-0.320726,-0.618915,-2.50747,-105.875,180.938,-188.688,-0.195313,0.868164,1.99121,-14,5,-9,-16,-6,1,-3,0,20513
-0.3047,-0.590017,-2.60592,-114.375,150.438,-195.5,0.18457,1.35693,2.42969,-8,0,-14,-14,0,2,6,-2,20530
-0.3047,-0.590017,-2.60592,-114.375,150.438,-195.5,0.18457,1.35693,2.42969,3,-16,-2,8,5,-9,11,-1,20547
-0.329877,-0.560661,-2.68142,-190.125,136.375,-146.188,0.763184,1.6709,2.57617,0,5,-7,3,-3,-15,-5,2,20565
-0.359291,-0.534709,-2.73184,-159.438,111.688,-91.4375,1.26758,1.20605,2.22607,14,18,-9,6,15,-8,76,7,20582
-0.371047,-0.504491,-2.77954,-101.688,123.375,-79.5625,1.23438,1.0957,1.93262,9,-17,-4,14,14,8,3,4,20600
-0.369113,-0.47894,-2.8212,-50.8125,106.25,-71.625,1.05713,0.942383,1.55566,-6,-31,-2,-9,-16,11,-60,-6,20616
-0.334821,-0.465532,-2.87429,-41.8125,97.25,-70.25,0.871094,0.781738,1.21436,-13,-38,-5,-6,-12,9,-73,-6,20633
-0.313102,-0.45137,-2.91749,-45.375,88.0625,-60,0.719238,0.567383,0.973633,-7,7,4,9,-4,9,-54,-10,20650
-0.313102,-0.45137,-2.91749,-45.375,88.0625,-60,0.719238,0.567383,0.973633,-7,16,3,4,-2,-15,14,6,20667
-0.295588,-0.440186,-2.9478,-23.875,69.8125,-41.9375,0.596191,0.403809,0.692383,1,4,1,4,2,8,21,-7,20684
-0.281181,-0.435245,-2.96766,-7.875,51.0625,-26.375,0.570801,0.297363,0.403809,1,16,0,-5,0,-1,-31,2,20701
-0.274084,-0.437343,-2.98074,-5.8125,30.5,-21.75,0.494141,0.147461,0.0966797,-5,-4,5,9,-1,5,-20,-2,20718
-0.273739,-0.443368,-2.98939,-9,17.625,-18.6875,0.400391,0.027832,-0.137207,-2,5,-2,-9,-7,1,-15,-11,20735
-0.273739,-0.443368,-2.98939,-9,17.625,-18.6875,0.400391,0.027832,-0.137207,-3,6,9,7,0,-1,14,2,20753
-0.276929,-0.473359,-2.99016,4.0625,-9.4375,-1.875,0.455078,-0.00244141,-0.478516,-2,6,-2,2,-4,-3,-22,-5,20821
-0.28592,-0.537451,-2.9534,1.0625,-49,58.4375,0.587891,0.362793,-0.101563,-2,6,-2,2,-4,-3,-22,-5,20838
-0.301549,-0.567317,-2.91422,-0.6875,-66.4375,89.4375,0.797852,0.244629,0.0273438,8,16,12,11,1,4,11,-4,20855
-0.301549,-0.567317,-2.91422,-0.6875,-66.4375,89.4375,0.797852,0.244629,0.0273438,-1,-5,-30,-13,-4,-6,48,-2,20872
-0.313234,-0.588759,-2.87471,1.125,-61.5,98.5,0.854004,0.294434,0.551758,1,17,42,-25,-2,10,-32,-2,20890
-0.323191,-0.601798,-2.82204,39.875,-77.375,117.438,0.791016,0.756836,1.30371,21,-48,5,-23,-57,25,-128,-16,20907
-0.334287,-0.632184,-2.74854,89.9375,-137.688,134.75,0.77832,0.897949,1.80225,-82,-38,8,-18,-4,-20,-18,-3,20924
-0.349254,-0.666351,-2.66422,103.25,-156.938,148.438,0.847656,0.807129,2.10254,10,37,-36,32,50,-25,127,14,20941
-0.369563,-0.705231,-2.57449,104.75,-174.063,147.125,0.745605,0.830566,2.33936,44,11,-14,27,48,-20,126,17,20958
-0.385078,-0.747663,-2.47979,135.875,-187.813,144.188,0.610352,0.560547,2.19629,43,7,-13,23,38,-9,127,14,20975
-0.385078,-0.747663,-2.47979,135.875,-187.813,144.188,0.610352,0.560547,2.19629,45,0,-69,4,24,10,58,1,20992
-0.395966,-0.784513,-2.3897,133.063,-185.438,140.375,0.609375,0.522949,1.87109,24,9,13,0,-4,18,-52,-2,21009
-0.413314,-0.821633,-2.30678,109.875,-173.5,118.375,0.79834,0.412598,1.51611,-5,7,1,9,-21,16,-71,-6,21027
-0.413314,-0.821633,-2.30678,109.875,-173.5,118.375,0.79834,0.412598,1.51611,-5,10,-4,-13,-33,-6,-46,-5,21043
-0.42508,-0.853076,-2.25082,73.4375,-136.5,70.25,0.705078,0.496582,1.32227,-2,19,3,4,9,0,29,-1,21060
-0.422866,-0.887197,-2.19467,41.625,-91.9375,38.9375,0.0820313,0.361816,1.05469,-3,-12,3,-1,7,-8,38,5,21078
-0.426943,-0.890493,-2.12079,33.0625,-41.25,30.4375,-0.420898,-0.10791,0.310059,4,-22,12,12,0,1,13,0,21143
-0.426943,-0.890493,-2.12079,33.0625,-41.25,30.4375,-0.420898,-0.10791,0.310059,-7,-12,-7,-6,-9,-14,16,0,21159
-0.430103,-0.864661,-2.1074,9.0625,13.375,-10.3125,-0.606934,-0.336914,0.108398,-4,-11,5,4,0,-14,-11,-1,21176
-0.429244,-0.841259,-2.12332,-19.75,36.5,-31.625,-0.729492,-0.368164,0.131348,-2,7,4,4,-1,3,-7,3,21192
-0.426295,-0.812452,-2.15378,-43,59.5,-52.5,-0.727051,-0.385254,0.17627,-6,-14,-23,-13,5,1,9,0,21210
-0.426295,-0.812452,-2.15378,-43,59.5,-52.5,-0.727051,-0.385254,0.17627,2,-15,-35,-15,-7,-2,-12,0,21226
-0.417874,-0.78159,-2.19721,-59.1875,71.3125,-69.6875,-0.628906,-0.302246,0.341309,1,0,28,22,-4,-14,-1,-3,21242
-0.395831,-0.749256,-2.25591,-59.8125,87.6875,-88.4375,-0.401367,-0.125,0.559082,-6,10,-12,-34,-1,-1,13,0,21260
-0.367038,-0.721496,-2.32694,-62.5625,114.5,-108.313,-0.187988,0.233887,1.18311,6,-1,7,-7,3,3,1,3,21277
-0.343346,-0.696433,-2.39579,-60.625,119.375,-115.313,-0.0332031,1.03027,1.92578,-11,-30,22,-71,-15,0,-15,-5,21294
-0.328086,-0.681259,-2.46075,-74.75,88.6875,-121.5,0.460449,1.24072,2.35254,4,20,-10,38,7,4,-17,1,21311
-0.328086,-0.681259,-2.46075,-74.75,88.6875,-121.5,0.460449,1.24072,2.35254,-11,7,-38,0,-1,-1,13,1,21328
-0.338298,-0.653384,-2.52036,-134.938,119,-100.625,1.3042,1.48389,2.50977,-16,-1,-8,-8,-4,-5,-12,-2,21345
-0.355568,-0.62011,-2.57359,-140.125,131.438,-83.3125,1.61035,1.42627,2.37207,1,-1,8,32,7,-2,15,-1,21362
-0.362731,-0.578889,-2.63066,-112.875,158.063,-84.875,1.56885,1.24854,1.99707,4,-14,-25,-5,5,-6,24,2,21379
-0.368289,-0.533188,-2.6861,-99.6875,170.563,-79.1875,1.229,1.06006,1.57373,2,-1,-14,-7,2,6,22,-6,21396
-0.352601,-0.431719,-2.82958,-36.5,108.688,-66.6875,0.588867,0.366211,0.638672,-2,14,1,-5,-4,-1,-16,-4,21470
-0.336025,-0.421823,-2.8638,-18.625,78.5,-54.625,0.557129,0.281738,0.424316,-5,-4,-3,9,6,-3,14,0,21487
-0.322353,-0.422762,-2.88861,-4.875,47.8125,-44.625,0.556641,0.210938,0.152832,7,-4,7,-8,-10,8,-47,-6,21504
-0.315193,-0.430644,-2.90642,-4.4375,25.4375,-39.125,0.50293,0.0893555,-0.0849609,7,-4,7,-8,-10,8,-47,-6,21521
-0.315193,-0.430644,-2.90642,-4.4375,25.4375,-39.125,0.50293,0.0893555,-0.0849609,-8,-3,-1,2,2,-4,27,-4,21538
-0.31408,-0.443773,-2.91876,-6.375,9.0625,-33.3125,0.473633,-0.00878906,-0.241211,-4,-6,2,3,1,-3,14,1,21556
-0.317322,-0.481324,-2.93166,-4.9375,-7.6875,-18.0625,0.556641,0.0209961,-0.37793,-2,7,-3,-2,0,-3,19,1,21574
-0.317322,-0.481324,-2.93166,-4.9375,-7.6875,-18.0625,0.556641,0.0209961,-0.37793,3,-2,-10,-4,-1,-5,-3,-1,21590
-0.318521,-0.500912,-2.9306,-9.0625,-10.6875,2.9375,0.600586,0.209473,-0.270996,1,-7,1,13,1,3,7,1,21607
-0.321606,-0.523207,-2.91823,-6.625,-31.8125,31.125,0.584473,0.314941,-0.160156,-2,-5,0,-6,-1,0,-6,-1,21624
-0.329082,-0.549765,-2.89041,6.5,-53.0625,62.4375,0.633301,0.273438,-0.166016,-2,-2,11,-16,1,-2,13,0,21641
-0.344225,-0.571703,-2.85525,0.5,-51.5,78.875,0.69873,0.146973,0.0585938,-3,-5,-10,-18,8,2,32,2,21658
-0.348427,-0.582107,-2.82207,2.0625,-53.0625,91.625,0.648438,0.361816,0.862305,2,-5,-1,-39,-10,-1,2,-3,21676
-0.353079,-0.59715,-2.76217,61.6875,-95.5,131.438,0.670898,0.979492,1.46826,6,18,72,86,-5,13,-62,-1,21693
-0.358061,-0.633704,-2.67618,127.688,-168.438,152.313,0.969727,0.758301,2.09277,-3,-27,53,-19,-29,4,-128,-15,21710
-0.358061,-0.633704,-2.67618,127.688,-168.438,152.313,0.969727,0.758301,2.09277,-40,11,43,1,9,-14,39,0,21727
-0.367483,-0.73493,-2.4464,99.625,-122.938,96.75,1.06152,0.679199,2.01953,28,17,-3,-25,-22,-21,-20,-2,21795
-0.3387,-0.747411,-2.42757,52.6875,-98,70.5625,0.793945,0.69043,1.82373,18,7,-8,-19,-20,30,-68,-8,21812
-0.317502,-0.756082,-2.4122,37.6875,-90.1875,55.25,0.446289,0.552734,1.58984,-11,-6,-24,-15,-16,17,-95,-9,21830
-0.304133,-0.761624,-2.39429,31.25,-84.375,54.375,0.133301,0.467285,1.3125,-14,10,-8,-4,-2,-1,-31,-4,21847
-0.302299,-0.768683,-2.37019,22.8125,-83.9375,56.8125,-0.0385742,0.337891,0.981445,-3,-3,-3,2,-4,2,18,1,21864
-0.308507,-0.775139,-2.34073,20.75,-80.1875,58.25,-0.149414,0.18457,0.762207,5,1,-11,2,7,22,25,3,21881
-0.308507,-0.775139,-2.34073,20.75,-80.1875,58.25,-0.149414,0.18457,0.762207,7,1,9,7,6,2,1,-2,21898
-0.32797,-0.79056,-2.27035,41.75,-85.875,56.8125,-0.371094,-0.0195313,0.450684,4,0,-8,-4,2,-3,-8,-3,21915
-0.32797,-0.79056,-2.27035,41.75,-85.875,56.8125,-0.371094,-0.0195313,0.450684,-4,4,-11,-4,-3,-6,4,-1,21931
-0.339024,-0.801066,-2.22983,54.3125,-96.0625,49,-0.536621,-0.183594,0.341309,-1,7,1,0,-6,-11,-6,1,21949
-0.346247,-0.810755,-2.19238,68.75,-86.8125,35.0625,-0.603027,-0.318848,0.189453,0,9,-4,-1,4,-2,14,-1,21967
-0.346247,-0.810755,-2.19238,68.75,-86.8125,35.0625,-0.603027,-0.318848,0.189453,2,-34,2,-4,-2,-9,2,1,21985
-0.34977,-0.80259,-2.16388,14.5625,-17.25,-7,-0.637207,-0.277832,0.194824,-3,0,-5,-13,-7,-1,8,1,22001
-0.34977,-0.80259,-2.16388,14.5625,-17.25,-7,-0.637207,-0.277832,0.194824,-4,6,-1,9,-2,5,-5,1,22018
-0.346482,-0.79079,-2.17569,-6.4375,-0.4375,-34.5,-0.605469,-0.287598,0.27002,-2,42,11,24,-3,-4,5,1,22036
-0.336185,-0.773303,-2.20569,-27.8125,28.9375,-58.0625,-0.437988,-0.211914,0.375,-4,21,56,-29,3,-2,-1,-1,22053
-0.237032,-0.686196,-2.4514,-67.3125,86.3125,-130.563,0.779785,1.67041,2.35693,-6,-1,-53,-26,-2,-3,6,0,22111
-0.237032,-0.686196,-2.4514,-67.3125,86.3125,-130.563,0.779785,1.67041,2.35693,-1,4,19,21,-2,-2,-17,0,22128
-0.255527,-0.653503,-2.49985,-139.313,117.188,-83,1.96777,1.75635,2.42188,-3,34,-7,-5,4,-1,12,0,22145
-0.267854,-0.613439,-2.55804,-134.063,145.875,-100,1.64258,1.0835,2.08545,-3,2,-14,-27,-7,-13,-1,-3,22163
-0.263682,-0.561951,-2.61716,-82.125,179.188,-97.4375,1.31494,1.19385,1.86621,6,8,17,15,7,-4,5,-2,22180
-0.266024,-0.509861,-2.66975,-83.5,177.875,-86,1.30127,1.08936,1.45996,6,-4,-6,-21,5,-6,25,1,22197
-0.266614,-0.461388,-2.72196,-87,174.063,-81.5,0.914063,0.724609,1.13623,-1,-14,-9,-6,6,-3,18,-1,22214
-0.268081,-0.418618,-2.76642,-68.4375,154.063,-72.6875,0.714844,0.438477,0.844238,3,6,3,-8,-5,0,-13,-2,22231
-0.268081,-0.418618,-2.76642,-68.4375,154.063,-72.6875,0.714844,0.438477,0.844238,4,5,-6,-13,-8,4,-34,-7,22247
-0.267681,-0.382452,-2.80615,-50.5625,134.188,-68.6875,0.653809,0.339355,0.569824,-2,26,5,2,-1,3,-22,-4,22264
-0.271676,-0.351917,-2.83826,-50.5625,112.875,-55.5,0.51416,0.283691,0.368652,-7,0,9,3,-11,2,-36,0,22280
-0.271676,-0.351917,-2.83826,-50.5625,112.875,-55.5,0.51416,0.283691,0.368652,-17,2,1,-4,-6,-9,-19,-1,22297
-0.274413,-0.336166,-2.86369,-45.25,89.6875,-41.3125,0.488281,0.169434,0.143066,1,-2,2,1,2,3,22,0,22314
-0.278434,-0.326743,-2.88422,-33.9375,72.3125,-36.375,0.473633,0.0791016,-0.0620117,0,-12,3,-3,-2,5,0,-5,22331
-0.278434,-0.326743,-2.88422,-33.9375,72.3125,-36.375,0.473633,0.0791016,-0.0620117,-2,-4,0,-1,-5,-7,4,0,22348
-0.287062,-0.327934,-2.91021,-13.4375,33.8125,-22.875,0.521484,-0.0581055,-0.374023,-4,-1,-5,-8,0,-3,-10,-1,22366
-0.301144,-0.384378,-2.909,-22,-34.5625,31,0.732422,0.423828,-0.194824,-12,-23,-4,16,-5,5,1,0,22432
-0.314786,-0.417852,-2.88109,-30.625,-61.25,67.375,0.85498,0.370605,-0.0375977,-6,-1,-3,13,3,-3,21,-3,22450
-0.314786,-0.417852,-2.88109,-30.625,-61.25,67.375,0.85498,0.370605,-0.0375977,6,-1,45,6,8,-1,64,2,22468
-0.328548,-0.451217,-2.84478,-27.9375,-83.125,87.8125,0.89209,0.352539,0.50293,3,-6,-42,-11,8,-4,22,0,22485
-0.328548,-0.451217,-2.84478,-27.9375,-83.125,87.8125,0.89209,0.352539,0.50293,27,32,-18,-40,-28,18,-124,-11,22502
-0.330138,-0.522434,-2.72399,103.563,-176.313,122.75,0.984863,0.994141,1.84814,28,33,44,-22,-22,24,-128,-8,22519
-0.330138,-0.522434,-2.72399,103.563,-176.313,122.75,0.984863,0.994141,1.84814,-67,-1,20,-33,22,-30,111,2,22536
-0.334811,-0.658907,-2.49515,109.313,-168.125,120.125,1.06104,0.664063,2.11621,34,5,-71,-22,30,-31,123,16,22554
-0.334811,-0.658907,-2.49515,109.313,-168.125,120.125,1.06104,0.664063,2.11621,36,24,-25,-3,-3,21,-45,-1,22571
-0.347879,-0.69135,-2.43762,65.4375,-131.125,90.125,0.900879,0.686035,1.88135,18,14,11,-10,-24,20,-118,-9,22588
-0.35672,-0.716413,-2.39596,37.75,-111,68.6875,0.547363,0.541992,1.65479,-28,-10,-7,20,-9,-10,-9,-5,22605
-0.343896,-0.724706,-2.37316,32.5,-97.875,61,0.144043,0.460449,1.40088,-20,-12,7,3,13,-5,23,0,22621
-0.337188,-0.730217,-2.34724,30.4375,-92.4375,62.1875,-0.129883,0.387695,1.12256,-9,-4,-23,8,9,-32,35,2,22639
-0.336924,-0.734575,-2.31335,39.625,-87.625,70.375,-0.28125,0.26416,0.814941,5,4,-16,-2,3,3,20,4,22655
-0.340174,-0.737622,-2.27238,57.25,-78.6875,76.3125,-0.368164,0.0844727,0.508301,7,2,-9,-1,0,2,4,-1,22673
-0.340174,-0.737622,-2.27238,57.25,-78.6875,76.3125,-0.368164,0.0844727,0.508301,5,23,6,7,2,17,-25,-1,22691
-0.344532,-0.722281,-2.17404,46.875,-32.75,45.375,-0.705566,-0.1875,0.234375,-4,-15,-4,-10,-6,-5,5,0,22762
-0.355344,-0.702271,-2.14783,26.1875,-9.4375,49.3125,-0.647461,-0.262207,0.283691,0,-3,-5,-2,1,-3,18,1,22779
-0.362176,-0.674737,-2.13593,14.9375,25.1875,26.375,-0.515625,-0.370605,0.308594,0,1,-4,-6,1,1,0,0,22796
-0.357435,-0.64369,-2.1456,9.75,52.1875,-14.3125,-0.48877,-0.380371,0.333496,3,-9,-19,-2,-8,1,-2,0,22813
-0.357435,-0.64369,-2.1456,9.75,52.1875,-14.3125,-0.48877,-0.380371,0.333496,5,-53,0,64,4,3,7,4,22829
-0.32181,-0.580292,-2.22406,-24,83.6875,-90.25,-0.300293,-0.141602,0.681641,0,-2,-6,-15,-2,-9,-5,-3,22847
