roll,pitch,yaw, gyro_x, gyro_y, gyro_z, accel_x, accel_y, accel_z, EMG0, EMG1, EMG2, EMG3, EMG4, EMG5, EMG6, EMG7, time
-1.44874,-0.710209,-1.15593,-58.375,99.5,-72,0.399902,0.314453,0.300781,0,0,0,0,0,0,0,0,309
-1.43216,-0.744129,-1.22117,-79.5625,124.938,-101.75,0.878906,0.140137,0.236328,0,0,0,0,0,0,0,0,324
-1.41431,-0.787862,-1.30544,-116.75,153.938,-149.75,2.20264,-0.459473,0.13916,0,0,0,0,0,0,0,0,342
-1.39315,-0.82223,-1.41039,-156.438,189.375,-131.75,2.80664,-1.14697,0.129883,0,0,0,0,0,0,0,0,360
-1.34522,-0.845021,-1.51348,-82,181.313,-104.188,3.04102,-1.56738,0.382813,0,0,0,0,0,0,0,0,377
-1.29601,-0.871397,-1.6138,-75.9375,163.063,-119.25,2.80371,-0.894531,0.171387,0,0,0,0,0,0,0,0,395
-1.28509,-0.897135,-1.69939,-152.688,137.813,-108.063,1.67529,-0.853516,-0.257813,0,0,0,0,0,0,0,0,411
-1.301,-0.916398,-1.77773,-223.313,118,-91.625,2.10791,-0.717773,-0.521484,0,0,0,0,0,0,0,0,429
-1.301,-0.916398,-1.77773,-223.313,118,-91.625,2.10791,-0.717773,-0.521484,0,0,0,0,0,0,0,0,446
-1.33898,-0.938058,-1.8426,-252.5,99.9375,-84.1875,1.59717,-0.884766,-0.242676,0,0,0,0,0,0,0,0,464
-1.33898,-0.938058,-1.8426,-252.5,99.9375,-84.1875,1.59717,-0.884766,-0.242676,0,0,0,0,0,0,0,0,480
-1.42533,-0.96717,-1.91642,-177.125,49.6875,-41.9375,0.964355,-0.854492,-0.185547,-2,-1,-2,4,-4,0,1,1,497
-1.46114,-0.971654,-1.92747,-119.688,28.125,-20.0625,0.518555,-0.687988,-0.819824,-4,-1,1,5,-5,-3,-5,-2,514
-1.46114,-0.971654,-1.92747,-119.688,28.125,-20.0625,0.518555,-0.687988,-0.819824,1,-2,0,-5,15,2,0,-4,531
-1.47938,-0.965469,-1.93576,-69.4375,17.5,-4.125,0.341309,-0.583984,-0.0224609,-1,-2,-1,-2,-1,6,-3,1,549
-1.50491,-0.96301,-1.93014,-46.6875,9.5,3.375,0.389648,-0.347656,-0.304688,1,1,1,2,-8,-4,-2,0,565
-1.61885,-0.932541,-1.88771,-54.25,6.5625,8.6875,-0.312012,-0.329102,-0.66748,-2,0,1,-3,3,-5,-7,0,634
-1.65552,-0.916114,-1.8667,-23,7.6875,11.5,-0.181152,-0.458008,-0.848633,4,-1,-2,-23,1,3,16,-5,650
-1.70727,-0.880867,-1.79945,64.5,-21.75,20.5625,0.0771484,-0.572266,-1.02441,11,1,-4,30,1,-2,31,-9,668
-1.70727,-0.880867,-1.79945,64.5,-21.75,20.5625,0.0771484,-0.572266,-1.02441,-39,3,2,24,5,-3,-47,20,684
-1.6916,-0.871413,-1.77502,106.375,-38.125,18.4375,0.61377,-0.720703,-0.791016,18,-3,0,-19,-6,0,29,-18,702
-1.67336,-0.872139,-1.74501,124.25,-46.75,-8.25,1.48828,-1.25146,-0.728516,0,-2,-4,-4,-13,4,3,-10,718
-1.66146,-0.857678,-1.69732,143.125,-87.125,34.3125,1.66211,-1.3335,-0.524902,4,-4,-7,-14,30,-15,26,-3,735
-1.64827,-0.825069,-1.6196,203.938,-155.313,81.8125,1.7627,-1.52734,-0.145996,-8,-4,-11,-2,27,-18,-19,2,752
-1.64827,-0.825069,-1.6196,203.938,-155.313,81.8125,1.7627,-1.52734,-0.145996,10,1,2,19,-54,-8,-10,-4,768
-1.64827,-0.825069,-1.6196,203.938,-155.313,81.8125,1.7627,-1.52734,-0.145996,10,1,2,19,-54,-8,-10,-4,784
-1.63722,-0.777852,-1.45704,142.188,-162.125,51.3125,2.26074,-1.13623,0.224609,-1,-1,1,-8,64,0,0,2,801
-1.64329,-0.755387,-1.39205,105.438,-144.875,68.75,2.04639,-0.978027,0.35791,-1,-4,3,3,10,-1,4,-1,818
-1.6411,-0.731309,-1.33337,114.25,-134.688,72.75,1.84863,-0.92041,0.38916,-4,-4,0,1,21,1,0,-1,835
-1.63409,-0.70971,-1.28257,110.563,-120,69.625,1.54883,-0.452637,0.414063,-5,-4,0,-8,18,-4,-7,2,852
-1.63409,-0.70971,-1.28257,110.563,-120,69.625,1.54883,-0.452637,0.414063,-3,-4,-3,-4,6,0,-1,9,869
-1.61838,-0.706592,-1.24877,84.625,-96.625,59.0625,1.22705,-0.233887,0.407227,-5,-2,-5,0,14,-4,-6,-3,885
-1.55398,-0.705927,-1.2348,-3.8125,-11.375,46.1875,0.489258,0.574219,0.763184,-8,-2,-4,-6,-5,-5,-7,2,943
-1.54265,-0.709192,-1.25956,-53.375,20.125,30.0625,0.235352,0.625,0.759766,-1,-3,-5,-9,-8,-2,-3,2,961
-1.53454,-0.716338,-1.29899,-89.5625,52.625,9.75,0.0610352,0.647949,0.737793,-1,0,1,-1,-5,3,6,-7,979
-1.53748,-0.723456,-1.34314,-100.438,87.25,-17,-0.0522461,0.648926,0.63916,-9,2,5,-11,-6,0,5,0,996
-1.52332,-0.741662,-1.40302,-79.25,120.188,-50.875,-0.0478516,0.555176,0.430664,7,-8,-8,-11,-5,-7,7,-9,1014
-1.49873,-0.770974,-1.4739,-70.625,141.563,-86.75,0.0795898,0.435059,0.101563,8,4,4,-7,-2,0,-2,-1,1031
-1.49873,-0.770974,-1.4739,-70.625,141.563,-86.75,0.0795898,0.435059,0.101563,8,4,4,-7,-2,0,-2,-1,1047
-1.46382,-0.813581,-1.55845,-71.5,160.938,-125.75,0.472168,0.424805,-0.129395,-8,0,-7,0,-1,-4,20,-14,1063
-1.41012,-0.856178,-1.66253,-64.125,186.563,-137.438,0.633301,0.250488,-0.274902,-22,-11,-13,-13,14,-3,-14,-3,1080
-1.34758,-0.901413,-1.78201,-81.125,197.125,-156.375,1.09326,0.113281,-0.328125,5,19,17,17,12,6,-35,16,1097
-1.2494,-0.953597,-1.92688,-51.5,199.875,-210.813,2.25732,-0.219727,-0.345703,-5,-5,5,13,-15,-8,36,-20,1114
-1.12169,-1.00526,-2.08675,-13.6875,180.875,-232.375,2.61963,-0.642578,-0.195313,-20,0,-28,8,-19,-4,-18,1,1132
-1.12169,-1.00526,-2.08675,-13.6875,180.875,-232.375,2.61963,-0.642578,-0.195313,8,-4,8,3,-6,5,6,1,1149
-0.988581,-1.04962,-2.23337,21.125,126.25,-217.438,2.66797,-0.756836,-0.015625,4,-3,2,30,7,-6,-2,5,1165
-0.84778,-1.09134,-2.36741,65.8125,73.625,-207.188,2.49902,-0.639648,0.182617,11,-2,7,4,1,0,7,7,1182
-0.705955,-1.13042,-2.5063,49.125,43.9375,-204.563,2.40674,-0.0234375,0.297852,4,1,10,7,5,0,-4,0,1199
-0.397342,-1.20335,-2.97896,-152.563,35.75,-158.313,1.6001,-0.550293,0.373047,-3,0,-1,-5,-9,0,-1,-3,1258
-0.331024,-1.20625,-3.0906,-105.313,36,-117.625,1.14209,-0.618164,0.221191,-7,0,-1,1,-15,-5,-2,-4,1274
-0.305607,-1.20463,3.13641,-64.0625,38.5625,-85.0625,0.719238,-0.567871,0.00634766,-1,-4,-1,1,-5,-8,2,-10,1291
-0.305607,-1.20463,3.13641,-64.0625,38.5625,-85.0625,0.719238,-0.567871,0.00634766,2,-1,3,11,-1,-2,-9,6,1308
-0.283424,-1.20094,3.09115,-45.3125,39.875,-69.3125,0.385254,-0.467285,-0.118164,-9,-3,-1,3,-5,-3,-8,-15,1325
-0.274583,-1.19867,3.06477,-32.5,33.8125,-52.625,0.116699,-0.447754,-0.277344,5,0,0,-2,4,-1,-2,3,1343
-0.294193,-1.2011,3.07526,-12.25,19.1875,-25.8125,-0.105469,-0.526855,-0.48877,-4,0,-1,6,4,3,3,1,1360
-0.322081,-1.20919,3.11292,41.125,5.1875,-13.8125,-0.222656,-0.660645,-0.679688,-12,-1,-4,-3,-5,2,-7,-9,1377
-0.374052,-1.22952,-3.09608,76.875,-20.5,-5.8125,-0.184082,-0.837402,-0.979004,6,0,3,1,-7,0,-3,4,1395
-0.488285,-1.25656,-2.95414,85.9375,-47.5625,30.1875,0.0268555,-0.890137,-1.16309,8,-1,2,-6,7,0,3,-3,1411
-0.488285,-1.25656,-2.95414,85.9375,-47.5625,30.1875,0.0268555,-0.890137,-1.16309,2,-4,-5,-10,-7,-4,-4,-2,1429
-0.66518,-1.27847,-2.75241,66.9375,-75.75,71.6875,0.250977,-0.651855,-0.995605,9,0,0,-4,-5,0,10,-3,1447
-0.824015,-1.27605,-2.57179,45.375,-81.1875,104.875,0.420898,-0.686035,-0.816406,-23,-2,-10,13,4,-4,-6,9,1464
-0.988885,-1.25594,-2.3959,12.625,-72.25,128.688,0.916992,-0.824707,-0.536621,-18,1,-4,-12,3,4,4,4,1481
-1.13786,-1.2314,-2.236,11,-84.8125,127.813,1.80273,-0.881348,-0.291992,2,-3,-9,-14,4,2,5,4,1498
-1.30015,-1.18999,-2.05626,17.125,-129.5,173.563,2.63086,-0.76416,-0.158203,-17,8,27,30,-11,-5,-57,8,1515
-1.58929,-1.03931,-1.6998,51.5625,-219.125,254.563,2.95264,-1.26953,0.275391,6,0,-2,16,-14,-2,8,-2,1567
-1.65245,-0.94672,-1.56807,135.5,-219.25,254.375,2.99023,-1.63232,0.205566,11,-3,14,11,-31,-3,2,0,1583
-1.67078,-0.858529,-1.47834,149.5,-181.75,237.188,2.75342,-0.691406,0.263672,-8,-2,0,1,30,0,-4,14,1600
-1.67157,-0.774412,-1.4146,130.625,-149,227.313,2.4541,-0.197266,0.126465,1,-2,-5,-19,12,5,11,1,1617
-1.67157,-0.774412,-1.4146,130.625,-149,227.313,2.4541,-0.197266,0.126465,-4,0,5,3,0,3,-9,6,1634
-1.73005,-0.628252,-1.32478,-31.25,-126.438,199.563,1.74805,0.0424805,0.112305,-4,-1,-3,-12,0,4,-4,0,1651
-1.73005,-0.628252,-1.32478,-31.25,-126.438,199.563,1.74805,0.0424805,0.112305,2,-2,-3,-7,1,2,4,-1,1668
-1.75384,-0.563183,-1.28392,-5.6875,-132.813,187.313,1.33252,0.0986328,0.217285,-3,-1,-3,1,-21,-6,-2,2,1685
-1.7581,-0.501503,-1.24197,46.375,-138.938,169.938,0.873047,0.287109,0.20752,4,0,2,0,1,1,-4,1,1701
-1.74952,-0.450032,-1.20544,69.75,-121.375,137.313,0.401367,0.45752,0.248047,6,0,-2,-1,-19,-2,1,-2,1718
-1.73646,-0.412514,-1.17718,69.25,-93.125,100.25,0.180176,0.604004,0.226074,-1,0,2,4,-13,-4,3,-10,1735
-1.73646,-0.412514,-1.17718,69.25,-93.125,100.25,0.180176,0.604004,0.226074,-5,-1,-5,-5,5,2,3,-7,1752
-1.72246,-0.389944,-1.15807,49.375,-69,75.875,0.0166016,0.75,0.311523,-1,10,7,-4,7,-2,-4,6,1769
-1.70543,-0.37376,-1.14791,42.0625,-40.875,48.9375,-0.248535,0.919434,0.401367,0,-5,1,-10,-7,4,1,-6,1786
-1.68936,-0.376195,-1.1471,27.6875,-9.4375,-5.5625,-0.385254,1.03955,0.44043,-2,5,0,1,-2,-7,-3,3,1802
-1.67685,-0.405979,-1.15511,10.8125,22.5625,-70.75,-0.28125,1.08105,0.376465,4,-1,-15,-10,-7,5,5,-5,1820
-1.68271,-0.51557,-1.19458,-56.4375,80.125,-163.5,0.241699,0.887695,0.409668,-4,-11,-12,-33,5,-1,18,1,1870
-1.68277,-0.596168,-1.22719,-53.5,101.125,-206.25,0.473633,0.81543,0.356934,24,3,2,40,13,-3,-9,-1,1887
-1.67941,-0.690186,-1.26552,-56.5,116.813,-258.313,1.81445,0.479492,0.0239258,-16,-2,-13,-44,-5,3,26,-18,1904
-1.67304,-0.80842,-1.33474,-117.188,180.688,-321.75,3.0918,-0.720215,-0.0585938,-9,2,-1,12,-6,3,-33,-1,1921
-1.62636,-0.922496,-1.43334,-81.9375,208.375,-311.688,3.8042,-1.08154,0.265137,-7,-2,-4,18,-6,1,-7,17,1939
-1.52388,-1.03189,-1.5641,-17.875,211.375,-312.563,4.23047,-1.12549,-0.313477,27,-2,13,60,5,-2,16,-6,1958
-1.52388,-1.03189,-1.5641,-17.875,211.375,-312.563,4.23047,-1.12549,-0.313477,4,-2,9,-7,-13,-6,2,6,1974
-1.39859,-1.115,-1.73686,-76.375,208.75,-261.688,3.36572,-0.930176,-0.0849609,6,-3,2,19,13,1,-3,9,1991
-1.24862,-1.1766,-1.93339,-83.9375,182,-227.063,2.78711,-0.73877,-0.00878906,12,-5,-2,2,37,4,3,2,2009
-1.07338,-1.2252,-2.16828,-125.438,174.5,-216.875,2.28516,-0.241211,-0.0234375,7,2,3,-9,-5,6,-23,21,2025
-0.912794,-1.24928,-2.42063,-222.5,169.375,-181.813,1.93945,-0.188477,-0.151367,11,2,0,-6,-8,7,8,-1,2042
-0.786703,-1.24682,-2.63317,-210.875,160.688,-127.625,1.43262,-0.708008,-0.328125,10,0,-2,-5,-5,-1,18,-14,2059
-0.708505,-1.23472,-2.76493,-128.438,120.125,-77.3125,0.853516,-0.8125,-0.540039,-9,0,-1,-3,-7,-4,-4,-3,2076
-0.702854,-1.22574,-2.79767,-49.75,90.625,-45.6875,0.537598,-0.706055,-0.633789,-8,0,0,2,-4,1,2,-7,2093
-0.702854,-1.22574,-2.79767,-49.75,90.625,-45.6875,0.537598,-0.706055,-0.633789,0,0,-1,-1,3,2,1,-5,2111
-0.719205,-1.21776,-2.78871,-1.625,57.25,-16.125,0.15332,-0.617188,-0.660156,2,-2,-1,1,2,-3,3,-8,2128
-0.998736,-1.22011,-2.46592,42.125,-34.875,26.9375,-0.303711,-0.699219,-1.10059,-3,-2,-4,-1,0,-4,0,-5,2198
-1.15141,-1.2079,-2.3069,18.5,-52.1875,64,0.0771484,-0.67627,-1.08643,-5,0,-3,-5,0,-1,1,-1,2215
-1.15141,-1.2079,-2.3069,18.5,-52.1875,64,0.0771484,-0.67627,-1.08643,12,-4,-6,-16,-6,2,19,-8,2232
-1.27806,-1.1831,-2.17129,21.875,-57.8125,90.75,0.446289,-0.582031,-0.725586,-13,-2,-5,-5,0,2,-31,14,2249
-1.339,-1.1505,-2.08857,47.5625,-58.25,109.188,0.498047,-0.571777,-0.436523,32,2,17,-45,-8,-3,46,-23,2266
-1.37882,-1.11102,-2.02114,63.5625,-50.0625,123.063,0.802246,-0.66748,-0.344727,13,-1,-9,-18,-1,5,49,-13,2283
-1.41544,-1.07474,-1.94915,82.1875,-69.8125,121.188,1.67676,-0.786621,-0.231445,1,3,5,12,5,1,-27,6,2300
-1.48899,-1.01831,-1.83615,68.3125,-141.563,178.938,2.68896,-0.792969,-0.0415039,-29,-2,-6,-9,-3,3,-14,11,2318
-1.48899,-1.01831,-1.83615,68.3125,-141.563,178.938,2.68896,-0.792969,-0.0415039,-15,-6,-19,14,18,-3,-12,6,2334
-1.54809,-0.936299,-1.71044,130.188,-189.188,245,3.05127,-0.89502,0.285156,-11,-2,2,12,7,0,-29,10,2351
-1.58142,-0.853353,-1.59568,161.938,-204.625,239.063,3.021,-1.13184,0.367188,5,-1,-6,7,-7,-5,5,-5,2368
-1.5981,-0.777354,-1.51228,126,-168.188,214.75,2.67822,-0.908203,0.387695,-2,-1,8,8,-7,0,-6,3,2385
-1.60604,-0.712144,-1.4514,95.8125,-134.188,182.75,2.24121,-0.364258,0.347168,2,-1,-1,-3,-11,-5,10,-1,2402
-1.61652,-0.651467,-1.4007,61.5,-119.813,169,2.13965,-0.397461,0.191895,-1,-1,-2,-2,3,-2,6,-6,2420
-1.6297,-0.602267,-1.35986,27.6875,-105.938,160.875,1.89502,-0.187012,0.1875,-2,-1,-2,5,4,-3,-3,-1,2437
-1.64431,-0.553944,-1.32107,15.75,-105.563,154.875,1.55029,0.0219727,0.187012,4,0,0,1,-1,-3,2,-2,2454
-1.65602,-0.453362,-1.23939,50.875,-120.063,148.938,0.896484,0.26123,0.22168,-4,0,1,2,-9,1,-4,1,2516
-1.64725,-0.407867,-1.20197,67.375,-110.125,132.5,0.480957,0.406738,0.214355,0,-1,1,-3,-10,-2,-1,-4,2534
-1.61856,-0.328647,-1.14055,70.25,-82.3125,102.125,-0.131836,0.649902,0.386719,4,-7,-2,-3,1,6,6,-7,2551
-1.61856,-0.328647,-1.14055,70.25,-82.3125,102.125,-0.131836,0.649902,0.386719,-7,0,2,-4,4,-2,-4,6,2568
-1.59466,-0.30767,-1.12694,50.75,-48.9375,64,-0.236816,1.03027,0.490723,-9,-1,2,-8,4,3,-1,0,2585
-1.5809,-0.300065,-1.12655,8.9375,-11.0625,23.25,-0.368164,1.26611,0.495605,11,2,3,1,7,-2,-5,-6,2601
-1.58273,-0.31505,-1.13358,-38.875,10.8125,-40.25,-0.366211,1.23682,0.450684,7,-5,-2,1,-7,-1,0,-5,2618
-1.60393,-0.357149,-1.14445,-76.75,29.625,-113.063,0.0390625,0.996582,0.398438,-10,-4,-6,-22,0,2,4,4,2636
-1.60393,-0.357149,-1.14445,-76.75,29.625,-113.063,0.0390625,0.996582,0.398438,-22,-6,0,-12,3,-1,-25,11,2654
-1.67153,-0.478646,-1.1931,-146.125,85.5625,-169.813,0.599609,0.465332,0.17041,-18,-4,-6,2,8,-1,-4,5,2672
-1.67153,-0.478646,-1.1931,-146.125,85.5625,-169.813,0.599609,0.465332,0.17041,27,-1,4,-4,-2,0,25,-16,2687
-1.72062,-0.556853,-1.22601,-186.938,109.063,-212.313,2.63477,-0.154297,-0.330566,-29,10,-10,2,6,1,-42,15,2704
-1.73738,-0.654895,-1.29101,-155.375,196.313,-253.688,3.08154,-0.943359,0.0136719,-17,-10,-18,-39,-14,-9,24,-30,2722
-1.7172,-0.753851,-1.37655,-100.313,228.688,-251.063,3.97607,-1.19385,-0.177246,5,-3,7,55,-1,-7,2,-10,2738
-1.6631,-0.838971,-1.47027,-37.75,215.625,-219.875,3.29834,-1.38281,-0.313477,8,-4,4,-29,3,4,8,6,2755
-1.6631,-0.838971,-1.47027,-37.75,215.625,-219.875,3.29834,-1.38281,-0.313477,2,0,8,-2,6,-1,-15,14,2772
-1.5335,-1.08123,-1.81377,-220.875,119.438,-134.75,1.80811,-0.304688,-0.331055,-3,0,1,-2,2,-2,-5,0,2844
-1.54208,-1.11428,-1.89377,-224.875,107.688,-97.75,1.22119,-0.57959,-0.423828,3,0,-2,5,-8,1,4,-1,2860
-1.54399,-1.13332,-1.95673,-164.625,83.5625,-60.75,0.803223,-0.605469,-0.45459,-3,-2,2,-3,-8,-4,-9,-17,2877
-1.55362,-1.13716,-1.98536,-88.125,65.625,-41.0625,0.414063,-0.63623,-0.495117,8,-2,-3,-2,-7,-5,3,1,2895
-1.56062,-1.13349,-1.99633,-32.4375,45.625,-21.4375,0.0854492,-0.549805,-0.520996,-7,-2,2,-2,-5,-7,-13,-3,2911
-1.56062,-1.13349,-1.99633,-32.4375,45.625,-21.4375,0.0854492,-0.549805,-0.520996,0,-5,-3,-4,-3,-5,2,-4,2929
-1.56886,-1.12403,-1.9882,13.8125,25.375,-5.875,-0.152832,-0.458496,-0.565918,1,1,-2,-5,2,0,-5,-3,2946
-1.57591,-1.11074,-1.96581,58.125,14.3125,0.1875,-0.276367,-0.480957,-0.683105,-12,2,3,0,4,1,-14,5,2962
-1.59248,-1.09666,-1.92382,88.625,3.5,-8.625,-0.376465,-0.608887,-0.935547,5,1,2,0,4,5,11,-8,2979
-1.63054,-1.07903,-1.85876,93.1875,-16.625,-1.1875,-0.244141,-0.684082,-1.1665,4,-3,-6,-10,-8,-4,4,-13,2997
-1.63054,-1.07903,-1.85876,93.1875,-16.625,-1.1875,-0.244141,-0.684082,-1.1665,3,0,-5,-10,4,4,12,11,3014
-1.69058,-1.05243,-1.77886,69.6875,-39.4375,32.0625,0.0761719,-0.626953,-1.27979,-8,-2,2,15,-3,-3,0,-2,3030
-1.75648,-1.01596,-1.70068,36.375,-69.25,61.4375,0.175781,-0.529297,-1.02393,-13,-2,-1,-2,4,-1,-16,8,3047
-1.79688,-0.972704,-1.65259,20,-62.0625,81.8125,0.546387,-0.786621,-0.707031,1,-3,-13,-18,-10,-5,8,-4,3065
-1.8126,-0.93851,-1.62771,23.6875,-46.3125,77.625,1.28369,-1.05762,-0.509766,-12,-1,-10,-4,-14,-8,-45,18,3082
-1.82341,-0.88951,-1.58252,71,-110.813,116.688,2.57227,-1.10742,-0.302246,-2,6,4,-52,-7,4,24,-6,3100
-1.77824,-0.614665,-1.39695,160.5,-170.25,226.375,2.84619,-1.1792,0.214355,0,-10,2,28,-5,-6,-5,19,3165
-1.75998,-0.53586,-1.36304,104.875,-124.5,205.438,2.16553,-0.518555,0.369141,-16,1,4,13,2,-3,-4,14,3182
-1.74757,-0.467743,-1.33346,76.5625,-108.75,178.438,2.22021,-0.317383,0.113281,-5,0,-1,16,-1,-7,5,-5,3199
-1.75362,-0.406901,-1.3064,15,-100.063,158.75,2.04541,-0.104492,0.0712891,1,1,7,0,-1,6,-4,-10,3216
-1.76001,-0.355298,-1.27688,11.25,-109.688,154.313,1.50879,-0.059082,0.0839844,-1,0,1,-1,1,-5,-1,-1,3233
-1.76001,-0.355298,-1.27688,11.25,-109.688,154.313,1.50879,-0.059082,0.0839844,6,-1,-4,-1,0,-7,1,-6,3249
-1.75381,-0.307239,-1.24301,49,-119.875,137.875,1.17432,0.115234,0.0405273,-2,1,1,3,5,1,-5,6,3266
-1.73591,-0.265537,-1.20858,78.0625,-116.563,116.125,0.808594,0.38623,0.105469,-1,-2,4,0,2,1,-4,0,3283
-1.70887,-0.227002,-1.17852,97.75,-101.438,105.875,0.442383,0.522461,0.130371,2,-5,0,1,-5,2,-4,0,3300
-1.6779,-0.190589,-1.15272,101.375,-85.5625,98.8125,0.114258,0.670898,0.229004,-11,0,-1,-4,-1,1,-6,4,3317
-1.64353,-0.164787,-1.13472,88,-61.125,72.9375,-0.0805664,0.852539,0.359375,-1,-2,-7,-2,-5,0,10,-7,3335
-1.64353,-0.164787,-1.13472,88,-61.125,72.9375,-0.0805664,0.852539,0.359375,1,-1,-1,0,-4,-1,-6,0,3352
-1.61411,-0.15147,-1.12451,57.3125,-36.0625,36.25,-0.175293,1.16455,0.524414,0,1,-6,-3,-4,-5,2,-2,3369
-1.59313,-0.155586,-1.1242,19.5,-6.5625,-16.75,-0.271484,1.25879,0.646973,-13,1,6,6,11,0,-26,16,3387
-1.58945,-0.183533,-1.13113,-30.5625,14.875,-80.125,-0.208984,1.09717,0.589844,5,1,-1,-6,-3,3,1,-15,3404
-1.6142,-0.235305,-1.14372,-85.25,38,-141.25,0.125,0.954102,0.450195,9,-3,-24,-32,0,-1,42,-10,3421
-1.7407,-0.47627,-1.23139,-202.375,139.063,-250.375,2.7041,-0.0678711,-0.230469,11,-2,3,-22,-11,-2,0,-21,3482
-1.77908,-0.577982,-1.28956,-193.938,196.438,-259.5,3.19873,-0.730469,-0.0341797,11,-2,0,-12,-1,1,8,-5,3500
-1.79025,-0.677746,-1.3624,-155,226.125,-243.625,3.58398,-0.890137,-0.11084,-2,-4,4,0,6,0,11,3,3517
-1.76222,-0.772344,-1.44597,-78.875,231.125,-229.125,3.34473,-0.710449,-0.196289,9,-3,4,-8,2,-2,5,0,3534
-1.76222,-0.772344,-1.44597,-78.875,231.125,-229.125,3.34473,-0.710449,-0.196289,1,-1,1,19,2,3,5,1,3550
-1.71645,-0.857152,-1.53654,-57.875,216.25,-209.188,2.90479,-0.558105,-0.287598,0,-3,0,22,8,-6,2,11,3567
-1.66753,-0.931666,-1.6274,-63.3125,187.875,-192.5,2.9541,-0.44873,-0.486816,-4,-4,-3,-1,-17,1,-2,-10,3584
-1.64404,-0.994439,-1.71393,-136.875,156.5,-167.188,2.44629,-0.168945,-0.408691,2,-2,3,12,0,-3,4,-5,3602
-1.66493,-1.04731,-1.76976,-192.375,101.938,-134.063,1.75244,-0.315918,-0.466309,4,-1,-1,1,5,0,-8,-1,3620
-1.68333,-1.08515,-1.826,-189.125,95.6875,-101.875,1.0249,-0.665527,-0.555176,-3,0,1,-2,5,5,-4,6,3636
-1.68333,-1.08515,-1.826,-189.125,95.6875,-101.875,1.0249,-0.665527,-0.555176,-1,0,0,-3,-7,-5,-3,0,3653
-1.68084,-1.11125,-1.88286,-135.438,88.4375,-72.5625,0.461426,-0.636719,-0.44873,5,3,0,-1,-3,0,-10,17,3670
-1.68564,-1.11765,-1.90518,-56.3125,64.1875,-47.4375,0.311035,-0.655762,-0.567871,2,2,-5,-2,-4,2,8,-12,3686
-1.6822,-1.10839,-1.91564,-1.5,48.4375,-21.625,-0.0581055,-0.76416,-0.614746,-7,-1,1,2,-5,-1,-4,3,3703
-1.69118,-1.08295,-1.89675,42.625,12.5,10.8125,-0.259277,-0.836914,-0.725586,-5,-2,1,-2,-1,-4,-7,2,3721
-1.70553,-1.05113,-1.85759,82.875,-10.5,26.625,-0.320313,-0.780273,-0.871094,10,1,-5,-6,-5,0,9,-5,3739
-1.85054,-0.918316,-1.65442,32.8125,-82.4375,96.5625,0.123535,-0.751953,-1.21826,17,-6,-13,-14,3,0,23,-13,3806
-1.86932,-0.865517,-1.62904,9,-76.3125,125.313,0.270996,-0.728027,-0.870605,-8,-1,-14,-12,-7,-5,1,-3,3823
-1.89052,-0.81172,-1.61044,-17.1875,-75.5625,135.125,0.899414,-0.869629,-0.660156,4,-4,-18,-38,-10,-5,47,-17,3840
-1.91441,-0.762678,-1.58177,-9.5,-103.875,124.438,1.9707,-1.05957,-0.434082,0,2,17,3,-11,-3,-8,2,3857
-1.91899,-0.69154,-1.53883,68.625,-155.625,160.813,2.88428,-1.03467,-0.222168,-30,-2,-19,-21,0,-8,4,-3,3874
-1.91899,-0.69154,-1.53883,68.625,-155.625,160.813,2.88428,-1.03467,-0.222168,-10,7,10,-21,-2,4,11,4,3892
-1.89957,-0.59198,-1.4763,163.25,-230.375,221.5,3.30127,-1.38037,0.0976563,5,-4,-7,16,0,0,-9,-2,3909
-1.8463,-0.484098,-1.413,246.125,-241.5,249.25,3.38086,-1.38379,0.134766,4,-2,10,24,13,-1,-2,-7,3926
-1.80651,-0.391854,-1.36348,174.063,-191.5,223.563,2.58154,-0.608398,0.287598,2,2,8,28,-2,-6,-32,24,3943
-1.78703,-0.312757,-1.32672,92.3125,-147.313,198.625,1.93896,-0.0410156,0.192383,-6,2,-2,-7,-4,4,5,7,3960
-1.79279,-0.249171,-1.294,9.5,-127.5,158.063,1.97705,-0.230957,0.0874023,3,-1,-6,-11,-3,-2,8,-3,3977
-1.79279,-0.249171,-1.294,9.5,-127.5,158.063,1.97705,-0.230957,0.0874023,-3,-4,-2,4,7,1,-9,-1,3993
-1.80154,-0.188763,-1.26362,-6.125,-121.625,149.813,1.73486,-0.152344,0.108887,2,-3,-3,-6,1,0,3,-4,4011
-1.79351,-0.139655,-1.23075,35.25,-127.563,137.875,1.32178,-0.0566406,0.146484,3,0,2,0,6,0,4,-6,4028
-1.7702,-0.0941714,-1.19586,76.5,-128.375,122.625,0.944336,0.144043,0.116699,-9,-3,-1,2,4,2,-6,8,4045
-1.73967,-0.0558001,-1.16328,93.875,-113.688,101.25,0.590332,0.38623,0.0854492,1,-8,-10,-6,-1,3,-2,-3,4062
-1.64705,0.00166053,-1.10108,55.125,-37.25,23.75,-0.134766,0.97998,0.446777,-12,-1,-5,-8,-10,4,13,0,4120
-1.62781,-0.00187722,-1.09731,18.5,-9.125,-21.375,-0.160156,1.30615,0.620605,13,1,3,18,-2,-1,-32,7,4137
-1.62781,-0.00187722,-1.09731,18.5,-9.125,-21.375,-0.160156,1.30615,0.620605,2,-1,2,-8,5,0,18,-6,4154
-1.61544,-0.0264077,-1.10094,-0.375,13.5625,-74.375,-0.109375,1.34424,0.595215,7,0,2,-10,-2,-2,-13,-3,4171
-1.62241,-0.0721018,-1.10758,-29.75,24.5,-126.875,0.111328,1.14502,0.585449,20,-3,-4,-38,-4,1,32,-26,4189
-1.64177,-0.13685,-1.12573,-70.125,61.8125,-172.75,0.402344,1.03076,0.602051,11,-7,-7,-10,-2,-6,5,0,4206
-1.67384,-0.219654,-1.15268,-110.5,93.875,-212.5,0.82666,0.856445,0.400879,11,-3,-16,-35,-5,-1,27,-14,4223
-1.74376,-0.31837,-1.18299,-223.125,121.813,-269.188,3.3418,0.23291,-0.268555,-21,3,-9,20,11,-4,-25,-2,4240
-1.79426,-0.431793,-1.24536,-210.938,227.563,-286.25,3.37939,-0.723633,0.141602,6,-13,-7,-13,5,-3,-22,0,4257
-1.79426,-0.431793,-1.24536,-210.938,227.563,-286.25,3.37939,-0.723633,0.141602,-12,-5,-7,-38,-14,4,-11,3,4274
-1.80935,-0.542063,-1.31173,-132.188,236.5,-269.5,3.93896,-1.18848,0.0131836,-5,1,6,0,-8,-1,-1,4,4292
-1.79297,-0.639167,-1.39151,-80.625,248.438,-227.313,3.50586,-1.18408,-0.503906,13,1,11,4,-9,-5,8,5,4310
-1.75843,-0.719115,-1.46589,-34.875,209.188,-190.75,3.00586,-0.834473,-0.298828,-2,-4,1,25,-9,-11,-11,13,4326
-1.73056,-0.787083,-1.53061,-47.9375,167.313,-168.563,2.41748,-0.334961,-0.38623,-11,4,0,19,13,10,-23,13,4343
-1.73978,-0.849827,-1.58764,-145.563,139.5,-159.313,2.01367,0.0136719,-0.478027,-1,-2,2,3,2,1,-12,0,4361
-1.77274,-0.907594,-1.6435,-213.313,135.5,-136.375,1.39941,-0.501465,-0.529297,3,-1,-1,3,-9,1,2,-4,4378
-1.80408,-0.956147,-1.76983,-5.125,39,-5.5625,-0.196289,-0.744629,-0.803223,5,-1,-2,0,-6,-6,-2,-7,4456
-1.80408,-0.956147,-1.76983,-5.125,39,-5.5625,-0.196289,-0.744629,-0.803223,-5,1,0,1,4,0,-5,2,4473
-1.8188,-0.93469,-1.7495,36,7.25,3.8125,-0.266113,-0.672363,-0.935547,0,1,-1,-6,1,1,-6,0,4490
-1.84118,-0.909845,-1.71179,60.125,-14.5625,-1.25,-0.321289,-0.749023,-1.14063,2,2,2,-6,-5,-1,-4,-11,4507
-1.83676,-0.902638,-1.6942,52,-35.5,11.5625,-0.142578,-0.96875,-1.27783,-11,-1,3,12,-2,-8,-32,4,4525
-1.86622,-0.863945,-1.65584,39.375,-38.75,49.75,0.192871,-0.872559,-1.14355,2,-5,-15,-23,-3,0,37,-14,4542
-1.87757,-0.814539,-1.63544,33.25,-44.375,96.6875,0.202637,-0.717773,-0.731445,-7,3,27,39,0,-4,-36,3,4559
-1.87757,-0.814539,-1.63544,33.25,-44.375,96.6875,0.202637,-0.717773,-0.731445,-5,-1,-19,-32,-15,-4,27,-13,4575
-1.88828,-0.763305,-1.62052,3.3125,-68.1875,124.688,0.456055,-0.950195,-0.614258,0,1,-10,-15,-3,2,8,3,4592
-1.91835,-0.709933,-1.59359,-33.75,-107.625,136.875,1.8916,-1.07813,-0.436523,10,-1,-22,-43,0,-2,31,-10,4609
-1.92657,-0.638565,-1.56503,27.375,-130.313,170.063,2.80518,-0.899414,-0.0405273,-21,-1,-12,1,-14,2,-17,4,4627
-1.90665,-0.544415,-1.52206,125.938,-187.875,219.25,2.99805,-1.13232,0.28418,31,-9,-8,-13,7,3,36,-21,4644
-1.85814,-0.43948,-1.47131,207.688,-214.688,247.125,3.10645,-1.00049,0.484375,2,-2,5,24,-1,-1,-9,3,4661
-1.8124,-0.340792,-1.42899,177.125,-182.125,243.813,2.81396,-0.991699,0.284668,-6,-2,0,4,4,-6,0,-5,4678
-1.8124,-0.340792,-1.42899,177.125,-182.125,243.813,2.81396,-0.991699,0.284668,1,-4,-3,1,-2,-8,5,-9,4695
-1.78915,-0.255611,-1.40103,90.5,-130.5,220.375,2.31152,-0.324707,0.291992,-8,1,3,4,1,2,2,-3,4713
-1.78859,-0.0166579,-1.26587,43.5625,-147.188,130.563,1.10352,0.104492,0.165039,-13,0,1,-4,-2,-1,0,-2,4784
-1.75799,0.0266708,-1.22649,85.25,-138.188,110.813,0.717285,0.391113,0.164551,4,0,3,5,-1,1,-6,5,4801
-1.72379,0.0613802,-1.18945,91.75,-121.938,85.625,0.361328,0.545898,0.166992,-2,0,1,1,8,-1,-5,0,4818
-1.72379,0.0613802,-1.18945,91.75,-121.938,85.625,0.361328,0.545898,0.166992,-4,-2,-8,-2,3,-3,13,-12,4835
-1.69588,0.0858461,-1.15779,67.3125,-99.5,59.9375,0.106445,0.674316,0.17627,6,1,-1,4,-1,4,-1,-2,4852
-1.66933,0.104679,-1.1316,49.5625,-77.125,32.75,-0.0981445,0.821777,0.370605,-14,-4,-13,-17,-8,0,13,-10,4870
-1.64472,0.114835,-1.11332,33.4375,-49.0625,3.5625,-0.195801,1.00586,0.546875,3,-2,-5,-10,-4,-9,1,1,4887
-1.62446,0.109747,-1.10586,12.5,-14,-40.5625,-0.240723,1.13281,0.715332,-5,0,-8,-15,1,-3,-19,1,4904
-1.61448,0.080047,-1.11004,-17.875,21.25,-99.875,-0.142578,1.13965,0.763672,-12,-2,1,12,-12,-6,-31,13,4922
-1.63245,0.0251637,-1.12761,-60.0625,59.125,-151.875,0.168945,1.25244,0.725586,24,-8,2,13,5,1,22,-8,4940
-1.63245,0.0251637,-1.12761,-60.0625,59.125,-151.875,0.168945,1.25244,0.725586,-2,3,11,44,10,3,-25,16,4957
-1.71291,-0.136873,-1.19332,-149.625,136.188,-242.063,1.52197,0.869141,0.226563,-7,4,-13,-21,-8,1,-12,-2,4974
-1.71291,-0.136873,-1.19332,-149.625,136.188,-242.063,1.52197,0.869141,0.226563,-1,-1,-11,-25,-2,10,16,-2,4991
-1.7795,-0.257048,-1.23729,-215.563,182.375,-318,3.83105,0.027832,-0.436035,2,5,1,-1,-3,-15,-21,-26,5008
-1.81467,-0.383381,-1.30398,-161.25,258.25,-312.438,3.84082,-1.32813,0.233887,-1,2,1,29,0,-4,9,9,5025
-1.80692,-0.495303,-1.36344,-50.1875,226.5,-275.125,3.94434,-1.08838,-0.227051,6,-3,12,21,12,1,25,-12,5042
-1.76107,-0.741715,-1.53663,-107.125,150.875,-182.938,2.18799,0.00732422,-0.307617,12,0,-1,-15,-6,-8,2,9,5112
-1.81414,-0.811005,-1.58175,-237.813,134.063,-157.313,1.76221,-0.245605,-0.467285,9,1,1,0,-10,5,0,-1,5129
-1.8537,-0.856811,-1.63066,-213.313,129,-100.063,1.14404,-0.773438,-0.570801,2,0,-1,-1,-5,-1,0,1,5146
-1.86675,-0.88549,-1.67222,-124.125,103.125,-61.125,0.733398,-0.879395,-0.667969,-4,5,-1,1,-5,-3,-3,-2,5164
-1.88107,-0.896361,-1.6853,-49.375,66.9375,-44.5,0.472656,-0.743164,-0.752441,-1,0,-4,-13,-1,-2,14,-4,5181
-1.88873,-0.890855,-1.68466,-0.5,27.875,-12.125,0.191895,-0.644531,-0.680664,0,-3,-3,-4,-4,-5,-5,1,5199
-1.89432,-0.868949,-1.67009,39.3125,-2.3125,13.125,-0.0537109,-0.671875,-0.782715,1,-4,-2,-4,5,1,-1,-6,5217
-1.89432,-0.868949,-1.67009,39.3125,-2.3125,13.125,-0.0537109,-0.671875,-0.782715,7,-2,-4,-8,-8,0,7,5,5235
-1.91126,-0.836329,-1.63722,52.875,-33.625,16.75,-0.289551,-0.76123,-0.967285,-1,-1,-6,-5,-6,-2,4,-7,5252
-1.94214,-0.792827,-1.59275,38.75,-65.1875,28.875,-0.278809,-0.914063,-1.10205,-8,-2,-7,-12,-6,-4,12,-2,5270
-1.97312,-0.741166,-1.55497,19.875,-74.9375,62.0625,-0.0424805,-0.932129,-1.09229,-16,0,-2,3,1,3,-15,1,5286
-1.99162,-0.688964,-1.52976,24.625,-71.3125,92.625,0.203125,-0.73877,-0.949219,-11,-2,-11,-21,-9,-3,10,-5,5304
-1.98973,-0.640807,-1.51602,35.3125,-79.9375,112.438,0.431152,-0.658203,-0.701172,8,-3,12,8,-3,-5,7,-16,5322
-1.97819,-0.589887,-1.50463,52.125,-84,125.813,0.835938,-0.810059,-0.390137,-35,-5,-14,-16,13,10,-1,-2,5340
-1.9497,-0.541915,-1.49097,100.313,-91,129.75,1.72119,-0.938477,-0.20752,32,8,7,-2,-32,-20,-9,-16,5355
-1.9497,-0.541915,-1.49097,100.313,-91,129.75,1.72119,-0.938477,-0.20752,-55,-11,-32,-16,24,18,-3,0,5372
-1.77589,-0.156512,-1.37948,14,-123.688,256.25,2.58545,-0.5625,0.376465,1,0,-2,-31,-14,-8,27,1,5440
-1.77589,-0.156512,-1.37948,14,-123.688,256.25,2.58545,-0.5625,0.376465,-1,2,-2,-19,-15,6,-10,19,5457
-1.75779,-0.0727881,-1.35047,61.4375,-127.813,219.5,2.3584,-0.700684,0.199707,-10,-2,0,-4,8,-2,15,2,5474
-1.75207,0.00146118,-1.31883,19.6875,-128.063,192.5,2.35986,-0.268066,0.0478516,1,-2,-6,-17,-6,-5,15,-10,5491
-1.73935,0.076385,-1.2819,32.25,-141.938,192.938,1.96924,-0.125,0.182617,5,0,-7,2,0,2,23,-10,5508
-1.71122,0.136491,-1.23923,64.8125,-149.625,173.438,1.34717,0.291016,0.163086,-3,-2,1,-6,10,4,0,3,5525
-1.68558,0.188302,-1.19513,54.4375,-144.875,145.313,0.961426,0.67334,-0.00537109,-2,0,1,-1,1,-3,-1,-1,5541
-1.68558,0.188302,-1.19513,54.4375,-144.875,145.313,0.961426,0.67334,-0.00537109,-5,1,-7,-9,-5,-1,1,-6,5558
-1.65932,0.232886,-1.14852,44.25,-142.75,121,0.583984,0.57373,0.223145,8,2,14,0,3,-2,-4,-4,5575
-1.62546,0.266249,-1.10555,60.4375,-124.5,87.1875,0.171387,0.548828,0.382324,-1,-4,-3,-11,0,0,14,-8,5592
-1.57914,0.28883,-1.0712,77.0625,-87.9375,44.8125,-0.0131836,0.811035,0.458984,12,-1,7,-1,-5,1,9,-4,5609
-1.54196,0.302257,-1.04534,48.8125,-60,13.625,-0.0629883,1.05713,0.533203,-25,-5,-9,-8,-5,-4,-7,2,5626
-1.51925,0.305431,-1.0263,2.1875,-38.0625,-17.3125,-0.130371,0.984863,0.67627,-27,3,-2,4,4,0,-22,5,5643
-1.51618,0.290784,-1.02173,-42.6875,-1.125,-63.4375,-0.0634766,0.918945,0.694336,14,8,6,2,2,2,8,-5,5661
-1.54214,0.250226,-1.03792,-74,42.8125,-120.25,0.105469,0.963379,0.687012,-10,6,8,-6,3,2,-17,6,5678
-1.54214,0.250226,-1.03792,-74,42.8125,-120.25,0.105469,0.963379,0.687012,-27,-8,6,5,10,2,-15,15,5695
-1.77418,-0.0856486,-1.21604,-212.125,228.5,-285.5,3.19824,-0.694824,-0.3125,6,2,-9,-21,-2,-7,18,-13,5763
-1.81059,-0.205349,-1.27886,-130.5,249.625,-295.625,3.72314,-0.837402,-0.169922,59,19,5,6,4,-6,39,-20,5780
-1.81059,-0.205349,-1.27886,-130.5,249.625,-295.625,3.72314,-0.837402,-0.169922,-22,-13,-4,-15,-23,-4,28,-8,5798
-1.81836,-0.320444,-1.33778,-66.6875,238.313,-281.125,3.86279,-0.825684,-0.501465,5,-11,-2,15,5,-6,15,-5,5813
-1.81217,-0.421426,-1.39029,-36.875,206.25,-247,3.32422,-0.80957,-0.461426,11,-8,2,16,-3,-4,1,5,5830
-1.79901,-0.508327,-1.433,-17.5625,164.75,-216.688,2.73975,-0.404297,-0.50293,-3,-9,2,9,2,-11,12,12,5847
-1.80734,-0.584119,-1.47164,-81.125,142.063,-189.75,2.07373,-0.152344,-0.440918,8,0,2,15,-7,0,12,-19,5865
-1.85361,-0.656269,-1.50461,-182.313,125.938,-161.375,1.49805,-0.0942383,-0.391113,1,2,3,-8,-4,-2,-8,1,5881
-1.90635,-0.709759,-1.53922,-209.875,121.563,-116.313,0.95459,-0.479492,-0.481934,-5,-2,-4,-16,-7,-1,1,-1,5898
-1.90635,-0.709759,-1.53922,-209.875,121.563,-116.313,0.95459,-0.479492,-0.481934,-5,-1,-3,-5,-1,-6,-8,2,5915
-1.93867,-0.746595,-1.57351,-155.688,108,-75.875,0.61084,-0.762207,-0.468262,-6,0,1,-5,6,3,-1,-6,5932
-1.95497,-0.775994,-1.60252,-101.25,92.25,-61.5625,0.361328,-0.780273,-0.599609,-18,0,1,4,-2,0,-16,5,5950
-1.96305,-0.780887,-1.61239,-26.25,52.8125,-33.375,0.193359,-0.737793,-0.664063,-3,-3,6,5,-3,-3,-9,2,5967
-1.96986,-0.765432,-1.6006,29.6875,2.0625,-3.3125,-0.00634766,-0.718262,-0.853516,10,-1,2,-5,-2,-3,-1,-10,5985
-1.97902,-0.731099,-1.57152,62.3125,-42.0625,18.875,-0.149414,-0.878418,-1.04639,-15,0,-2,9,7,2,-9,5,6002
-1.98739,-0.683295,-1.54527,52.625,-56.625,46.4375,-0.235352,-1.01953,-1.00684,0,-4,-4,-3,-2,-6,4,-1,6019
-1.99481,-0.539602,-1.51202,16,-68.4375,116.313,0.453613,-0.619141,-0.668945,-1,1,-3,-3,-2,-3,16,2,6084
-1.98866,-0.488693,-1.51151,19.3125,-61.5625,136.125,0.682617,-0.729492,-0.408203,12,-3,-11,-1,2,6,14,-4,6101
-1.98866,-0.488693,-1.51151,19.3125,-61.5625,136.125,0.682617,-0.729492,-0.408203,2,1,-3,-45,-2,13,31,-9,6118
-1.97838,-0.436711,-1.51033,29,-71.1875,152.5,1.6377,-0.888672,-0.245117,-41,2,-10,-1,-6,-8,-67,27,6135
-1.94867,-0.359444,-1.49758,99.1875,-115.938,191.688,2.73584,-0.691406,-0.00585938,23,-9,-18,-10,0,2,41,-28,6151
-1.89772,-0.252998,-1.47168,168.313,-172.188,262.063,2.99658,-0.730469,0.0185547,-22,3,-1,11,-22,-13,-39,14,6169
-1.85141,-0.143542,-1.43474,153.813,-193.063,268.25,3.0835,-0.734863,0.213867,20,-1,5,2,5,3,16,-10,6186
-1.82694,-0.0422212,-1.3968,80.125,-181.563,251.5,2.7876,-0.753906,0.282227,-16,-4,-1,-1,2,2,5,15,6203
-1.82164,0.0425869,-1.36517,15.0625,-148.625,212.5,2.28955,-0.73877,0.282715,7,9,11,9,13,-1,9,4,6220
-1.82164,0.0425869,-1.36517,15.0625,-148.625,212.5,2.28955,-0.73877,0.282715,-9,7,-8,-23,-13,-1,-13,9,6238
-1.80617,0.116067,-1.33423,37.4375,-136.688,183.313,2.14844,-0.645508,0.178223,1,-4,0,-1,4,3,13,-5,6255
-1.7848,0.183222,-1.30266,47.75,-130.313,167.375,1.97705,-0.234375,0.133789,-4,-6,-1,3,0,-5,0,-4,6273
-1.75463,0.23611,-1.26707,61.4375,-131.688,151.75,1.39502,0.0180664,0.200195,-1,-2,1,5,-2,-2,-3,2,6291
-1.71529,0.283402,-1.22756,80.75,-131.75,130.813,0.981934,0.145996,0.174316,3,3,0,-10,-3,4,-9,1,6308
-1.6723,0.321241,-1.18949,88,-117.063,102.938,0.647461,0.416992,0.202148,-8,1,6,13,4,2,3,1,6325
-1.62404,0.350419,-1.15236,100.813,-106.125,78.8125,0.434082,0.621094,0.175293,-1,-1,1,4,-3,0,-4,-4,6342
-1.51122,0.425508,-1.05846,19.6875,-42.875,4.625,-0.344238,1.08203,0.581055,-1,1,-4,-7,-15,-3,9,-6,6412
-1.49582,0.426069,-1.04746,-13.0625,-11.5,-41.75,-0.271484,1.01953,0.645996,14,13,3,9,7,5,-8,3,6429
-1.50383,0.40261,-1.05239,-54.6875,22.5625,-91.625,0.0107422,0.914551,0.547852,25,6,11,-2,4,4,30,-17,6446
-1.54025,0.357031,-1.07324,-90.1875,52.5,-134.125,0.283203,0.975098,0.466309,-8,1,0,7,-10,0,-17,5,6463
-1.54025,0.357031,-1.07324,-90.1875,52.5,-134.125,0.283203,0.975098,0.466309,-8,4,3,9,5,-5,-9,9,6480
-1.58618,0.29882,-1.10164,-112.75,78.0625,-164.188,0.471191,0.90918,0.480957,51,19,7,3,1,-2,11,-10,6498
-1.64471,0.221069,-1.13647,-141.813,105.5,-198.938,1.32178,0.63623,0.0410156,-100,-32,-29,-28,-1,5,-52,24,6515
-1.71441,0.127107,-1.18393,-176.313,162.5,-253.25,3.35693,-0.117188,-0.397461,12,11,10,-3,0,7,-31,6,6532
-1.78395,0.0171338,-1.24376,-186.875,224.563,-280.188,3.84082,-1.2334,-0.0205078,-27,0,-5,-10,-12,-9,1,5,6549
-1.79502,-0.0809401,-1.30685,-37.5625,237.75,-235.438,3.63379,-1.43896,-0.199707,-10,-16,-12,-26,-4,-13,16,-2,6567
-1.79073,-0.165168,-1.3654,-8.1875,215.625,-198.688,3.0791,-0.928711,-0.235352,39,5,3,9,-9,5,28,-7,6585
-1.79066,-0.244416,-1.41321,-27.6875,180.688,-192.375,2.87012,-0.312012,-0.228027,22,1,1,26,-4,2,6,-6,6603
-1.79066,-0.244416,-1.41321,-27.6875,180.688,-192.375,2.87012,-0.312012,-0.228027,-12,-14,-10,9,-8,-1,-2,2,6620
-1.82378,-0.323869,-1.45459,-128.375,163.75,-194.813,2.54639,0.00683594,-0.310547,18,3,-1,-2,12,-1,4,-4,6637
-1.88894,-0.393724,-1.4874,-220.125,141.25,-167.438,1.94824,-0.325684,-0.473633,10,-2,3,-14,-1,0,3,-3,6655
-1.94302,-0.450744,-1.51964,-189.125,131.75,-112.438,1.29443,-0.769043,-0.528809,8,-5,1,-5,-10,-1,3,-3,6671
-2.00546,-0.519654,-1.589,-18.625,62.375,-21.9375,0.0400391,-0.514648,-0.723633,-4,2,2,-7,7,4,-5,-2,6731
-2.01417,-0.51345,-1.5935,-0.0625,33.8125,-4.5,-0.169922,-0.461914,-0.786133,18,-2,1,-2,-4,3,24,0,6749
-2.02583,-0.496759,-1.58854,8.875,9.4375,-3.75,-0.411133,-0.560059,-0.919922,-10,-3,-2,7,-1,-8,-8,3,6766
-2.03862,-0.470172,-1.5734,22.125,-18.875,-1.9375,-0.494141,-0.812012,-1.104,-7,-2,-4,-18,-3,-2,-4,-6,6783
-2.03862,-0.470172,-1.5734,22.125,-18.875,-1.9375,-0.494141,-0.812012,-1.104,-4,-1,-6,-15,-4,-5,9,-3,6800
-2.05094,-0.438583,-1.55649,27.4375,-41.1875,29.3125,-0.0571289,-0.95166,-1.22168,4,-3,-1,-28,-3,2,9,3,6817
-2.05689,-0.406372,-1.54473,35.1875,-50.625,67,0.353027,-0.759277,-1.07227,-28,-15,-2,-11,-7,-1,6,-4,6834
-2.04343,-0.364582,-1.53453,65.6875,-71.875,93.8125,0.319824,-0.750488,-0.661621,-28,-18,-8,4,-2,-8,-26,9,6851
-2.01495,-0.319357,-1.52671,90.375,-78.25,111.313,0.645508,-0.934082,-0.505859,-12,2,-2,38,32,5,-15,-4,6868
-1.96847,-0.274341,-1.51073,146.375,-92.75,99.75,1.89551,-1.04492,-0.15625,19,20,15,-23,0,-2,-13,-16,6885
-1.91003,-0.211343,-1.4829,186.813,-137.5,140.5,2.90625,-1.05371,-0.0737305,15,17,-3,-19,17,3,14,4,6902
-1.91003,-0.211343,-1.4829,186.813,-137.5,140.5,2.90625,-1.05371,-0.0737305,-21,0,-2,8,-3,0,0,-4,6918
-1.84603,-0.113149,-1.44811,199.25,-178.813,238.938,3.15625,-1.1875,-0.0786133,33,2,-1,19,-9,4,28,-38,6935
-1.79959,-0.0190611,-1.40548,141.25,-185.563,230.938,3.07715,-0.496582,0.19043,29,20,17,12,-20,-1,-6,10,6952
-1.77648,0.0718142,-1.36404,62.875,-172.375,228.563,2.76709,-0.464355,0.472656,-8,-13,-12,-15,-1,-4,13,0,6970
-1.74526,0.151893,-1.32302,76.375,-158.188,203.313,2.46875,-0.485352,0.228027,-7,-12,-3,-10,-1,-2,1,4,6988
-1.57252,0.38929,-1.18822,104.188,-81.625,129.938,0.817383,0.48291,0.184082,8,-13,-4,-8,-11,-6,0,5,7066
-1.54514,0.427589,-1.1611,43.875,-68.25,114.875,0.569824,0.653809,0.197754,-18,3,7,2,4,0,-8,-4,7083
-1.54514,0.427589,-1.1611,43.875,-68.25,114.875,0.569824,0.653809,0.197754,19,14,-3,-15,-7,3,19,-11,7100
-1.50476,0.474332,-1.09585,-7.5,-71.3125,57,0.208008,0.51416,0.364258,0,7,-2,-3,-11,-9,4,-5,7118
-1.50476,0.474332,-1.09585,-7.5,-71.3125,57,0.208008,0.51416,0.364258,4,7,-2,-12,10,9,-11,5,7135
-1.49198,0.492593,-1.06643,-32.3125,-56.5625,38.625,-0.00830078,0.558594,0.456055,-15,-8,-11,-18,7,6,-13,-6,7152
-1.48323,0.508252,-1.0477,-39.75,-24.8125,10.125,-0.138672,0.908691,0.586426,-7,-5,15,2,0,6,2,11,7169
-1.46893,0.517773,-1.04791,0.3125,20.625,-31.125,-0.227051,1.35791,0.560547,-20,-11,3,-16,8,-1,-4,12,7186
-1.47567,0.501168,-1.06589,-25.6875,53.3125,-95.4375,-0.0483398,1.27246,0.413574,12,0,7,8,11,0,32,-17,7203
-1.47567,0.501168,-1.06589,-25.6875,53.3125,-95.4375,-0.0483398,1.27246,0.413574,22,-3,-14,27,-7,-2,4,-5,7220
-1.54001,0.455712,-1.10238,-143.125,87.5625,-139.438,0.197754,0.896484,0.404785,-35,1,18,-6,-8,-11,-50,2,7237
-1.60722,0.396508,-1.15071,-137.938,127.75,-167.5,0.444336,0.749023,0.201172,-5,0,-10,-27,-10,-11,12,-5,7253
-1.67695,0.317246,-1.20176,-148.5,153.25,-216.563,1.91504,0.319824,-0.297852,-22,6,7,37,10,-2,-75,14,7270
-1.7548,0.210139,-1.25747,-181.438,196.938,-281.813,3.14355,-0.489258,-0.362793,-1,-1,-11,-12,-3,-3,26,-16,7288
-1.81239,0.101494,-1.30746,-142.813,204.438,-274.75,3.92285,-0.700195,-0.15625,18,3,1,18,11,0,3,2,7305
-1.83265,0.0018208,-1.35278,-51.625,197.063,-244.313,3.65381,-1.12109,-0.134277,24,-2,-7,-3,11,1,23,4,7322
-1.90374,-0.249455,-1.45234,-140.438,131.813,-195.563,2.47021,-0.323242,-0.538086,-1,3,0,-7,1,-2,-2,1,7401
-1.98468,-0.314261,-1.46558,-242.625,101.875,-159.875,1.72168,-0.42334,-0.584473,6,0,-2,5,-13,-5,6,-7,7419
-2.05721,-0.359591,-1.47462,-215.188,74,-95.375,1.08154,-0.783203,-0.520996,-1,-2,-1,2,4,-3,2,-1,7436
-2.09586,-0.391962,-1.48531,-122.188,68.6875,-65.6875,0.600098,-0.964355,-0.552246,-11,-8,-6,0,-1,-4,0,-4,7453
-2.10499,-0.411249,-1.49413,-32,54.9375,-44.625,0.237305,-0.780762,-0.534668,1,0,-3,6,0,4,9,-7,7471
-2.10502,-0.415002,-1.49579,11.25,23.875,-19.9375,0.0654297,-0.577637,-0.585938,6,1,1,-3,1,1,-1,-6,7489
-2.10111,-0.405411,-1.49536,29.25,6.0625,1.8125,-0.0981445,-0.575684,-0.645508,1,1,-4,-7,6,5,6,-9,7506
-2.10111,-0.405411,-1.49536,29.25,6.0625,1.8125,-0.0981445,-0.575684,-0.645508,0,-3,-2,-10,-9,-4,3,-11,7522
-2.0965,-0.386743,-1.48855,42.375,-13.3125,5.8125,-0.248047,-0.679199,-0.783203,-4,-1,-1,-5,-3,-2,-10,8,7540
-2.0951,-0.361179,-1.47719,42.1875,-30,11.0625,-0.265625,-0.885254,-0.971191,-1,-2,-4,-14,0,-2,2,-7,7557
-2.09634,-0.331223,-1.47023,29.25,-34.625,41.0625,-0.0185547,-0.994141,-1.02441,-9,0,6,12,3,1,-8,4,7574
-2.09434,-0.294333,-1.47145,30.5625,-35.375,84.6875,0.121582,-0.765137,-0.891602,8,-3,3,17,-1,-3,-21,3,7591
-2.07299,-0.251882,-1.47627,61.5,-46.5,112.125,0.157715,-0.663574,-0.645508,-9,-4,2,1,2,2,1,4,7608
-2.03957,-0.207129,-1.48164,94.125,-48.5625,124.813,0.44873,-0.66748,-0.449707,8,-4,0,12,-10,-9,8,-16,7625
-2.03957,-0.207129,-1.48164,94.125,-48.5625,124.813,0.44873,-0.66748,-0.449707,-8,3,0,-17,-25,-7,6,-7,7642
-1.94182,-0.0947554,-1.47787,157.875,-98.375,179.75,2.50439,-0.652832,-0.169922,16,11,4,3,8,11,2,-10,7660
-1.75902,0.206732,-1.37642,90.6875,-152.25,235.938,2.90039,-0.532715,0.288086,-7,-1,1,18,-4,-1,-12,26,7729
-1.71821,0.285746,-1.33858,90.1875,-141.688,205.75,2.25195,-0.341797,0.213867,-14,0,-1,1,4,4,-23,17,7746
-1.68679,0.354371,-1.29942,54.75,-131.563,180.563,2.28027,-0.398926,0.0581055,-3,-3,-3,0,-6,1,-4,1,7764
-1.65631,0.420224,-1.2618,46.6875,-118.5,178,1.94824,-0.0170898,0.156738,-5,-3,0,-2,6,6,-5,1,7780
-1.65631,0.420224,-1.2618,46.6875,-118.5,178,1.94824,-0.0170898,0.156738,-5,-3,-2,-1,-5,-1,-4,2,7798
-1.55641,0.529516,-1.1742,95.5625,-117,157.563,0.861328,0.28125,0.352051,-7,-2,-2,4,-9,-4,-8,6,7815
-1.55641,0.529516,-1.1742,95.5625,-117,157.563,0.861328,0.28125,0.352051,3,2,4,10,0,-2,-1,-8,7832
-1.49752,0.571482,-1.13313,101,-90.9375,128.688,0.63623,0.538574,0.371582,-2,4,7,-8,1,2,-13,2,7849
-1.45289,0.610484,-1.10121,69.75,-60.5,115.875,0.437012,0.879395,0.416504,-4,-6,-6,-7,0,-2,7,-12,7866
-1.41587,0.651823,-1.07025,19.75,-34.4375,93,0.133789,1.00781,0.478027,2,-1,-6,-3,1,-2,-12,2,7883
-1.39743,0.683255,-1.04863,-21.25,-11.8125,55.125,-0.0927734,0.851074,0.539063,-6,-6,-8,-9,-7,-1,8,1,7900
-1.39743,0.683255,-1.04863,-21.25,-11.8125,55.125,-0.0927734,0.851074,0.539063,-2,-2,-5,-3,1,5,-3,-4,7918
-1.39965,0.699536,-1.03944,-55.5,8.6875,12.625,-0.0556641,0.775879,0.493164,-1,-4,-5,-10,-3,-10,2,-5,7936
-1.41276,0.707119,-1.04458,-56.9375,32.375,-22.5625,-0.0478516,0.900879,0.41748,4,-2,-3,-7,0,5,24,-9,7953
-1.43214,0.700974,-1.06083,-51.5625,47.9375,-70.3125,-0.0859375,0.991211,0.365723,-8,-4,2,-10,1,1,-7,-1,7971
-1.47896,0.66354,-1.09538,-76.4375,66.5625,-125.813,0.163086,1.18799,0.241699,-20,-8,-8,45,-1,-3,-23,9,7988
-1.75308,0.397515,-1.25073,-248.25,195.625,-346.375,3.50977,-0.20166,-0.592773,2,6,-14,-29,7,0,-5,-8,8048
-1.83902,0.266249,-1.3145,-186.563,253,-328.625,3.61426,-0.870605,-0.178223,-34,-10,-12,48,9,-4,-14,3,8064
-1.87939,0.147137,-1.36024,-88.9375,220.375,-290.625,3.85059,-1.25244,-0.0678711,12,-2,7,15,-15,0,21,2,8081
-1.87939,0.147137,-1.36024,-88.9375,220.375,-290.625,3.85059,-1.25244,-0.0678711,11,-3,10,26,2,-7,17,1,8098
-1.84255,-0.0506366,-1.43138,64.625,162.938,-220.625,2.77588,-0.467773,-0.122559,3,-5,17,18,15,8,-3,-17,8116
-1.84255,-0.0506366,-1.43138,64.625,162.938,-220.625,2.77588,-0.467773,-0.122559,-4,0,-2,-9,-1,-2,1,9,8134
-1.85418,-0.132724,-1.45576,-40.1875,131.938,-207.25,2.24219,0.019043,-0.211426,5,2,1,-7,-4,3,-3,-4,8151
-1.93278,-0.208007,-1.46702,-230.688,98.625,-194.688,1.90186,-0.0605469,-0.275879,3,1,-2,-17,-4,1,-1,4,8168
-1.9994,-0.271645,-1.48157,-201.125,100.813,-137,1.30566,-0.921875,-0.390137,3,2,-4,-9,-1,-3,12,-12,8185
-2.03109,-0.321912,-1.49498,-98.875,86.6875,-95.4375,0.715332,-1.08057,-0.581543,4,0,1,5,0,5,-6,18,8202
-2.03109,-0.321912,-1.49498,-98.875,86.6875,-95.4375,0.715332,-1.08057,-0.581543,-3,-1,-1,0,-1,-7,-13,14,8219
-2.03126,-0.350566,-1.49486,32.5,3.75,-18.6875,0.126465,-0.708984,-0.647461,-5,-1,-2,-1,-2,5,3,-8,8236
-2.03126,-0.350566,-1.49486,32.5,3.75,-18.6875,0.126465,-0.708984,-0.647461,9,-1,-4,0,2,0,6,3,8253
-2.02668,-0.333085,-1.48608,44.4375,-24.5625,14.5,-0.0742188,-0.687012,-0.721191,3,0,1,0,6,-2,6,-5,8269
-2.02683,-0.308577,-1.47251,37.6875,-38.75,14.25,-0.260254,-0.802246,-0.816895,4,-2,0,2,-4,3,-4,-4,8285
-2.03334,-0.279539,-1.45789,19.5,-47.375,24.0625,-0.244629,-0.935059,-0.897949,2,-1,-2,4,0,5,4,10,8301
-2.03338,-0.168142,-1.458,25.5625,-50.5625,120.688,0.34082,-0.738281,-0.570801,12,1,-16,3,-19,-3,7,-11,8370
-2.01489,-0.125878,-1.46427,49.6875,-41.9375,126.438,0.749512,-0.802246,-0.335938,-14,4,11,-10,-2,-2,-38,10,8387
-1.98836,-0.080716,-1.46991,74.5,-39.5625,124.313,1.75488,-0.904297,-0.151367,-5,-5,-16,-17,-1,-11,-25,-3,8404
-1.94722,-0.0139593,-1.46319,118.563,-91.9375,169,2.94189,-0.737793,-0.15918,-26,-3,-5,22,5,-4,-13,-4,8420
-1.89138,0.0843081,-1.44837,158.5,-136.188,250.438,3.50928,-0.949219,0.185547,21,-3,2,-17,-5,4,7,-7,8436
-1.89138,0.0843081,-1.44837,158.5,-136.188,250.438,3.50928,-0.949219,0.185547,19,-2,-4,-6,-3,4,37,-17,8453
-1.83425,0.186155,-1.41964,152.313,-162.188,256.125,3.46826,-0.881348,0.313477,-7,-3,6,9,28,-1,-3,10,8470
-1.79424,0.280033,-1.39131,96.1875,-141.938,242.188,2.66992,-0.587891,0.432129,4,-3,7,8,32,-4,9,4,8488
-1.76231,0.362006,-1.36283,65.625,-124.25,213.75,2.1333,-0.107422,0.30957,-3,0,8,17,-17,0,-3,-1,8505
-1.74584,0.431213,-1.33454,15.8125,-109.563,181.438,2.1377,0.0410156,0.0517578,-6,0,4,-5,-6,-3,-4,-1,8520
-1.74584,0.431213,-1.33454,15.8125,-109.563,181.438,2.1377,0.0410156,0.0517578,-6,1,-1,1,-8,-2,2,-4,8537
-1.7424,0.499302,-1.30549,-27.1875,-107.063,179.25,1.76855,0.0883789,0.109375,5,-3,-3,4,1,-4,-3,-1,8554
-1.725,0.558226,-1.27064,-4.4375,-113.438,171.5,1.31543,0.0224609,0.222168,-14,-2,-7,-12,-1,-4,-12,0,8571
-1.68162,0.612571,-1.23267,61.5625,-110.438,154,0.999512,0.220703,0.209473,2,0,4,0,-4,-2,4,-5,8588
-1.62059,0.662159,-1.19353,105.438,-99.5,137,0.595215,0.529785,0.189941,-2,-1,3,-7,-11,1,-7,3,8605
-1.5564,0.706738,-1.15148,106.25,-94.25,121.875,0.248047,0.651855,0.124023,3,-3,-4,-10,-4,3,4,-6,8622
-1.40573,0.806041,-1.02601,30.25,-43.3125,26.4375,0.0112305,1.0542,0.481934,-4,0,1,4,7,-1,-9,1,8699
-1.36593,0.811138,-0.997653,16.875,-21.25,-26.8125,-0.0854492,0.962402,0.651367,-5,-5,-26,-8,-7,1,9,-6,8717
-1.35862,0.794814,-0.993678,-26,14.125,-88.8125,0.074707,1,0.622559,5,7,6,-15,-1,4,6,7,8734
-1.40181,0.756984,-1.02187,-77.5,43.6875,-129.125,0.189941,1.19238,0.647461,-7,-7,1,13,3,-1,-17,5,8751
-1.47522,0.705826,-1.06895,-128.5,86.875,-166.75,0.327148,1.10693,0.552734,35,5,5,6,-3,2,-11,-8,8768
-1.5865,0.626873,-1.13325,-205.313,136.063,-232.063,1.53223,0.81543,0.128418,4,-8,-13,-2,5,7,8,-16,8785
-1.7049,0.512157,-1.20789,-224,204.688,-314.438,3.40332,-0.126953,-0.362305,-23,-3,-5,19,1,-8,-24,-1,8802
-1.81894,0.397591,-1.29379,-218.25,279.938,-281.125,3.48584,-1.14014,0.13916,11,-7,-13,-68,2,-4,33,-23,8819
-1.81894,0.397591,-1.29379,-218.25,279.938,-281.125,3.48584,-1.14014,0.13916,1,1,13,16,-5,-13,12,-7,8836
-1.88334,0.28072,-1.36333,-118.25,273.813,-269.813,3.98291,-1.05566,-0.350586,0,-1,8,33,-24,-10,8,-2,8854
-1.91743,0.174536,-1.4234,-58.75,257.563,-233.75,3.49561,-0.906738,-0.344238,6,-2,3,20,10,17,7,14,8871
-1.92655,0.082264,-1.4664,-10.3125,205.5,-206.5,2.84375,-0.878906,-0.455566,-4,-4,1,17,0,-6,-3,0,8888
-1.93538,0.00397034,-1.49568,-22,157.75,-180.188,2.146,-0.495117,-0.409668,-4,0,0,-6,10,-6,5,-5,8905
-1.97343,-0.0629408,-1.51301,-110.188,117.813,-159.563,1.7002,-0.175293,-0.412109,7,-1,3,-3,-5,-3,-2,1,8923
-2.02613,-0.119967,-1.52696,-151.188,97.125,-116.063,1.10547,-0.509277,-0.485352,0,2,-2,-6,5,2,3,-2,8940
-2.02613,-0.119967,-1.52696,-151.188,97.125,-116.063,1.10547,-0.509277,-0.485352,2,1,1,-1,3,0,-9,8,8957
-2.12601,-0.188159,-1.54687,-52.5625,17.6875,-10.25,0.0546875,-0.804688,-0.680176,0,2,4,-5,-4,-5,6,-12,9010
-2.13076,-0.174769,-1.54532,0.0625,-10.5625,12.875,-0.134277,-0.771973,-0.69873,0,1,0,-5,-5,2,5,5,9028
-2.12162,-0.153806,-1.5403,47.5625,-26.625,21.1875,-0.228027,-0.808105,-0.813965,-5,2,-2,-10,-1,-3,-6,-12,9045
-2.11043,-0.127978,-1.53138,61,-40.4375,25.1875,-0.296875,-0.851074,-0.928711,1,0,0,2,-1,3,4,-2,9062
-2.11043,-0.127978,-1.53138,61,-40.4375,25.1875,-0.296875,-0.851074,-0.928711,-9,-3,-6,-7,8,-3,4,-6,9080
-2.09731,-0.0644587,-1.52106,48,-49.375,73.0625,-0.0209961,-0.520508,-0.839844,10,-2,-8,-18,-9,0,12,-6,9096
-2.09731,-0.0644587,-1.52106,48,-49.375,73.0625,-0.0209961,-0.520508,-0.839844,-1,-3,-9,14,5,-1,12,-3,9113
-2.09012,-0.0369259,-1.51956,46.75,-51,81.5,0.269043,-0.363281,-0.634766,-2,-4,-6,-4,-7,-3,-7,-8,9130
-2.07752,-0.02994,-1.52082,44.4375,-34.75,69.6875,0.848633,-0.456055,-0.392578,-12,-4,8,-5,12,14,-5,5,9147
-2.06367,0.00176036,-1.52126,39.5625,-42.5,80.4375,1.97803,-0.851074,-0.25293,18,-1,-32,-55,-3,-6,36,-22,9164
-2.05522,0.070049,-1.51184,23.125,-115.563,160.375,2.97852,-0.942871,-0.00537109,0,3,-5,7,12,-3,11,-10,9181
-2.05522,0.070049,-1.51184,23.125,-115.563,160.375,2.97852,-0.942871,-0.00537109,-13,1,-1,2,5,6,-19,25,9198
-2.00212,0.170167,-1.48861,144,-186.438,228.313,3.18262,-1.31445,0.296387,23,-3,4,-1,1,5,13,-14,9216
-1.93665,0.280131,-1.45031,163.125,-221.188,249.063,3.16455,-1.2207,0.410156,8,-3,6,10,-5,0,-5,3,9232
-1.88586,0.378623,-1.41657,114.125,-180.625,235.375,2.79297,-1.02734,0.471191,-2,-4,0,7,-8,-8,6,11,9249
-1.83703,0.464698,-1.38765,106.25,-143.375,214.813,2.24512,-0.373047,0.364746,-2,2,15,25,5,-1,-3,8,9265
-1.79533,0.623297,-1.33589,-3.4375,-110.75,209.188,1.87451,0.172363,0.165527,-2,1,2,5,3,2,-6,0,9319
-1.77194,0.694895,-1.29997,2.75,-124.313,195.563,1.29492,0.410156,0.169434,10,-3,-3,-7,-4,-4,-4,-5,9336
-1.72175,0.753767,-1.24548,39.0625,-144.625,150.188,0.803223,0.420898,0.155273,4,-1,5,3,-5,-2,-2,-7,9353
-1.6547,0.797557,-1.18248,64.3125,-141.375,109.375,0.390137,0.387695,0.140137,4,-1,5,3,-5,-2,-2,-7,9370
-1.5837,0.832763,-1.12225,76.1875,-121.25,91.625,0.205078,0.464355,0.147949,-11,1,-3,4,-1,-1,1,0,9388
-1.51453,0.870762,-1.06783,66.5625,-84.625,83.375,0.0957031,0.612305,0.296387,1,-3,-13,-4,5,5,2,-1,9405
-1.43989,0.904984,-1.0111,57.1875,-59.9375,59.8125,-0.214844,0.714355,0.634766,3,1,1,-5,-7,-1,-9,1,9422
-1.43989,0.904984,-1.0111,57.1875,-59.9375,59.8125,-0.214844,0.714355,0.634766,-3,0,-6,-6,0,-5,6,-4,9439
-1.3698,0.92771,-0.969172,73.1875,-27.4375,22.5625,-0.308105,0.751953,0.657715,7,-2,-2,3,3,1,-12,2,9456
-1.3326,0.94154,-0.955923,41.9375,17.375,-29.75,-0.270996,1.14453,0.596191,24,6,5,-7,-3,-3,24,-12,9474
-1.36857,0.913103,-0.991204,-22.625,41.6875,-92.5625,-0.0463867,1.50781,0.51416,10,-4,-10,-10,-5,0,14,-2,9491
-1.44063,0.86291,-1.03837,-101.5,60.375,-155.813,0.30957,1.4873,0.349121,-25,8,5,17,-5,0,-14,17,9508
-1.54296,0.790448,-1.09592,-175.313,98.375,-216.438,0.922852,0.943359,0.262207,-12,-4,-19,-20,-5,-2,-1,-2,9525
-1.66495,0.693721,-1.15127,-242.438,126.375,-273.563,2.7876,0.155273,-0.330566,23,7,9,5,3,5,-5,4,9542
-1.66495,0.693721,-1.15127,-242.438,126.375,-273.563,2.7876,0.155273,-0.330566,-43,1,-1,-8,-1,-3,-12,-7,9558
-1.76797,0.578184,-1.21998,-177.938,205.125,-305.188,3.54492,-0.651855,-0.09375,0,-3,10,26,10,-6,-31,2,9575
-1.92917,0.159029,-1.42221,-48.1875,193.063,-201.688,2.7749,-0.304688,-0.229004,-2,-2,-2,9,-3,1,6,-3,9651
-1.98744,0.0752702,-1.45288,-156.688,171.438,-189.75,2.31152,-0.019043,-0.28418,-20,-4,-1,-7,0,-5,-20,17,9668
-2.08287,0.0019573,-1.47168,-271.688,142.375,-163.625,1.75488,-0.125977,-0.341309,10,2,-2,-1,3,-4,6,3,9685
-2.16931,-0.0662065,-1.48866,-247.688,135.313,-126,1.06055,-0.736328,-0.599121,9,-1,-4,-4,1,2,6,-9,9702
-2.21955,-0.118589,-1.5103,-151.125,134.375,-81,0.453125,-0.815918,-0.523926,-8,-2,1,5,0,3,0,4,9719
-2.21955,-0.118589,-1.5103,-151.125,134.375,-81,0.453125,-0.815918,-0.523926,-3,-1,0,1,-1,-2,-13,12,9735
-2.22879,-0.160972,-1.52482,-26.0625,98.5,-59.5,0.358398,-0.674805,-0.628906,-8,-2,-3,1,-6,-2,-4,-6,9752
-2.21403,-0.184471,-1.53019,58.375,56.5625,-44,0.140625,-0.544922,-0.750977,-7,-3,-5,3,0,2,-12,2,9770
-2.18997,-0.187261,-1.52472,99.75,6.1875,-25.625,-0.0332031,-0.647461,-0.959961,12,1,-2,-5,-1,2,11,-3,9788
-2.17336,-0.175392,-1.50891,94.4375,-34.75,-16.125,-0.171387,-0.72998,-1.16699,-8,0,0,3,-2,-5,-15,11,9805
-2.16678,-0.155293,-1.48557,70.125,-67.3125,-6,-0.142578,-0.834473,-1.25781,4,0,-1,-2,-2,-1,3,2,9822
-2.16673,-0.132438,-1.46993,41.625,-66.3125,27,0.126953,-1.04102,-1.30225,-11,-2,-7,-2,0,6,-9,8,9839
-2.16673,-0.132438,-1.46993,41.625,-66.3125,27,0.126953,-1.04102,-1.30225,1,-1,7,14,3,-4,-13,-5,9856
-2.17397,-0.101126,-1.47314,3.8125,-43.9375,86.4375,0.222168,-0.821289,-1.0083,-6,0,10,5,-4,0,-9,-1,9873
-2.17699,-0.0545326,-1.47802,-9.5,-65.875,119.75,0.175781,-0.67627,-0.49707,0,-3,6,-8,1,0,15,-4,9890
-2.17862,-0.00767224,-1.48073,-8.4375,-75.625,122.375,0.550293,-0.834473,-0.334473,-28,5,4,1,-6,0,-61,14,9906
-2.10228,0.226976,-1.45895,149.063,-200.5,244.438,3.24805,-0.911133,0.0869141,18,-4,2,-13,-15,-2,6,-9,9979
-2.01207,0.359195,-1.42731,232.375,-254.438,294.813,3.64648,-1.09326,0.286621,-2,-2,4,13,-6,6,-16,9,9996
-1.91816,0.46268,-1.39687,234.313,-188.063,243.188,3.07617,-0.908691,-0.20459,-16,-2,4,13,7,-2,-12,22,10014
-1.86236,0.552635,-1.36529,115.75,-156.375,220,2.71631,0.354004,0.0664063,5,5,4,-14,-2,-3,14,0,10031
-1.82122,0.633449,-1.31976,44.75,-166.25,194.188,2.57959,0.0200195,-0.182129,-15,0,-2,-9,-6,-3,-2,-1,10048
-1.78122,0.704376,-1.26167,11.4375,-173.75,167.875,1.70117,-0.224121,0.0639648,-4,1,-6,-3,-1,0,-4,-6,10066
-1.70526,0.758426,-1.18654,71.375,-184.813,140.313,1.15918,-0.103027,0.149414,6,-2,0,-9,-7,1,2,1,10083
-1.70526,0.758426,-1.18654,71.375,-184.813,140.313,1.15918,-0.103027,0.149414,6,9,4,9,-5,-5,2,4,10100
-1.52037,0.846661,-1.03938,113.875,-134.938,121.313,0.789551,0.646484,0.147949,-4,-3,-7,1,-1,-3,-1,-10,10118
-1.52037,0.846661,-1.03938,113.875,-134.938,121.313,0.789551,0.646484,0.147949,-5,-3,-3,-5,3,-3,-7,-2,10136
-1.43813,0.880182,-0.96941,79.75,-117.25,102.938,0.410156,0.674316,0.227051,4,-5,-6,-6,-6,-1,4,-3,10153
-1.35298,0.911678,-0.893169,53.625,-99.875,78.4375,0.090332,0.700195,0.337891,-5,-6,-8,-14,1,6,4,2,10170
-1.26602,0.935447,-0.817598,44.0625,-77.5,48.9375,-0.0737305,0.866211,0.571289,1,-3,8,-8,-4,-5,-9,0,10188
-1.18533,0.951427,-0.753646,39.25,-46.3125,11.6875,-0.186523,1.09082,0.761719,-4,-11,2,12,3,-1,-15,2,10205
-1.18533,0.951427,-0.753646,39.25,-46.3125,11.6875,-0.186523,1.09082,0.761719,-26,-3,-8,-2,3,-2,-12,2,10222
-1.14477,0.954287,-0.730524,-37.5625,43.4375,-79.8125,-0.113281,1.05225,0.751953,-9,-2,-5,16,3,8,-20,17,10239
-1.51027,0.81891,-1.00156,-195.313,176.75,-223.75,2.29541,0.576172,-0.201172,14,-2,-17,-34,-8,-2,33,-20,10313
-1.67149,0.715001,-1.12609,-213.75,263.438,-292.75,3.28613,-0.54248,-0.216797,-12,4,-1,37,-8,2,-40,9,10330
-1.7925,0.601467,-1.23512,-155.563,297.063,-281.563,3.82324,-0.910156,-0.09375,-27,-9,-7,25,3,1,5,6,10347
-1.85374,0.489208,-1.31408,-57.875,267.938,-263.063,3.84131,-0.874512,-0.338867,8,-7,1,12,8,-3,12,-2,10365
-1.88963,0.389811,-1.37362,-30.25,232,-226.438,3.12402,-0.744629,-0.320801,3,-4,-1,9,5,-4,6,2,10381
-1.88963,0.389811,-1.37362,-30.25,232,-226.438,3.12402,-0.744629,-0.320801,18,-2,1,-2,-2,-3,19,-18,10399
-1.90516,0.302267,-1.42048,1.4375,200,-197.313,2.77148,-0.394043,-0.416992,-12,-3,-2,-5,2,7,-8,10,10416
-1.92994,0.218626,-1.45303,-47.375,166.688,-194.813,2.39258,-0.0375977,-0.550781,3,-1,-2,0,-3,-3,-4,-5,10432
-2.00223,0.149351,-1.46895,-198.75,117.5,-166.063,1.81641,0.0664063,-0.430176,0,4,2,4,1,1,-1,3,10449
-2.08584,0.092009,-1.48262,-230.813,100.188,-111.75,1.05371,-0.609375,-0.603516,9,3,3,-2,-2,2,-2,0,10466
-2.14236,0.0508879,-1.49599,-158.938,87.6875,-71.25,0.617188,-0.805176,-0.546875,4,-1,-2,2,4,-7,1,4,10483
-2.17006,0.0148734,-1.50449,-76.375,65.8125,-55.125,0.282715,-0.72998,-0.53418,-10,-2,-1,-2,-5,0,-14,8,10500
-2.17006,0.0148734,-1.50449,-76.375,65.8125,-55.125,0.282715,-0.72998,-0.53418,4,-2,-1,-5,-2,-2,4,-10,10517
-2.17436,-0.00543132,-1.50771,-5.9375,34,-33.5,0.167969,-0.730469,-0.614746,-6,1,-1,4,-1,2,1,-2,10534
-2.16149,-0.00741703,-1.51086,47.875,11.375,-0.375,-0.0102539,-0.696777,-0.653809,7,1,1,-2,-4,1,15,-4,10551
-2.13865,0.00388593,-1.50797,85.375,-17.9375,12.625,-0.171875,-0.785156,-0.837402,-2,3,6,9,4,4,-14,12,10569
-2.10416,0.117534,-1.49579,38.3125,-49.5625,119.875,0.231934,-0.817871,-0.750488,-20,1,-1,15,2,-1,-48,22,10643
-2.09289,0.166414,-1.50488,36,-54.25,144.75,0.54541,-0.876953,-0.519531,5,-4,-6,16,2,2,1,4,10659
-2.09289,0.166414,-1.50488,36,-54.25,144.75,0.54541,-0.876953,-0.519531,5,2,5,5,18,-4,-23,-6,10677
-2.08362,0.227099,-1.50646,27.4375,-82.25,153.125,1.69824,-0.89209,-0.354492,-40,-4,-20,-57,-9,-1,-19,6,10694
-2.04762,0.307465,-1.49595,95.4375,-135.063,188.813,2.82324,-0.636719,-0.206543,-4,7,2,-4,2,-4,-31,6,10711
-1.98308,0.421523,-1.4765,165,-188.125,273.125,3.43506,-1.16797,0.28125,22,0,1,18,-5,1,13,-8,10728
-1.8943,0.538971,-1.43643,201.125,-215.938,277.75,3.55615,-1.16162,0.282715,34,-1,6,-7,-1,2,22,-15,10746
-1.82371,0.637671,-1.39827,141.688,-168.313,245.438,2.73828,-0.545898,0.402344,-3,-6,2,10,-5,-7,9,1,10764
-1.82371,0.637671,-1.39827,141.688,-168.313,245.438,2.73828,-0.545898,0.402344,-3,3,8,4,-5,4,-6,11,10781
-1.76953,0.722526,-1.35856,83.4375,-140.813,217,2.271,-0.111328,0.325684,-1,-2,0,5,3,-6,16,-4,10798
-1.73451,0.795673,-1.31641,17.0625,-123.875,190.813,2.26074,-0.319824,0.172852,-7,0,1,-16,5,-1,-1,2,10816
-1.70632,0.865427,-1.27379,-9.1875,-111.25,185.125,2.04736,-0.108887,0.165527,3,-3,-1,-3,12,1,-5,0,10833
-1.65584,0.925476,-1.2185,17.875,-115.438,171.938,1.31592,0.0888672,0.243652,-2,-2,0,4,6,-2,7,-1,10850
-1.57825,0.973352,-1.14856,58.25,-121.313,135.125,0.928711,0.370117,0.131836,0,1,-3,-1,-4,-1,-10,-1,10868
-1.49763,1.00693,-1.07951,63.5625,-102.5,96.3125,0.556152,0.620605,0.146484,-1,0,-3,2,-1,-3,-7,-2,10885
-1.49763,1.00693,-1.07951,63.5625,-102.5,96.3125,0.556152,0.620605,0.146484,-8,1,-4,-5,-2,3,1,-2,10902
-1.1831,1.08912,-0.795979,4.0625,-30.875,-7,-0.240723,0.828613,0.646484,1,4,-3,-4,0,-5,-4,2,10968
-1.14525,1.08883,-0.75959,-12.5625,-8.4375,-35.9375,-0.191406,0.800293,0.632813,-8,-3,9,-1,1,1,-4,-1,10985
-1.14363,1.08153,-0.759682,-24.0625,27,-72.4375,-0.0224609,0.872559,0.599609,2,-4,-3,10,1,-3,-5,0,11002
-1.14363,1.08153,-0.759682,-24.0625,27,-72.4375,-0.0224609,0.872559,0.599609,11,4,13,-21,-14,-5,-17,3,11020
-1.21928,1.05662,-0.819085,-74.5625,56.8125,-111.938,0.130859,1.05273,0.504883,21,1,14,5,3,4,28,-14,11037
-1.32737,1.01703,-0.904063,-105.563,90.8125,-157.5,0.441895,1.12305,0.317383,5,-5,-22,-67,-31,-6,33,-20,11055
-1.48279,0.947472,-1.01541,-179.563,141.875,-225.5,1.96191,0.641113,-0.129883,-24,-2,2,-28,-3,-3,-28,11,11072
-1.65781,0.838924,-1.15074,-199.25,243.25,-311.313,3.21387,-0.347168,-0.345703,-24,-15,-10,11,-4,0,-52,7,11089
-1.79437,0.713535,-1.26334,-164.438,283.688,-319.438,3.91455,-1.05615,-0.0605469,-3,-2,-10,-33,3,5,10,1,11106
-1.79437,0.713535,-1.26334,-164.438,283.688,-319.438,3.91455,-1.05615,-0.0605469,-3,-2,-10,-33,3,5,10,1,11122
-1.85657,0.593221,-1.34155,-41.9375,259.313,-289.188,4.22949,-1.36377,-0.326172,-1,-3,1,49,19,4,-11,13,11139
-1.88378,0.488949,-1.3972,4.4375,218.938,-245.375,3.54541,-0.931641,-0.34668,13,1,13,26,-5,-26,13,-2,11156
-1.89209,0.406687,-1.43226,19.4375,159.75,-195.625,2.69531,-0.61084,-0.454102,-17,-5,0,2,-4,-5,-1,-3,11173
-1.92385,0.336365,-1.45055,-71.8125,112.438,-174.063,1.9165,-0.0717773,-0.344727,-3,0,0,4,7,-1,-13,0,11190
-2.00788,0.28026,-1.4582,-234.375,81.3125,-140.625,1.50391,-0.282227,-0.374512,5,4,0,-4,3,4,-3,0,11208
-2.08295,0.234879,-1.47325,-203.313,86.75,-77.75,1.05859,-0.710449,-0.462402,6,1,-3,4,3,6,1,4,11225
-2.17002,0.157423,-1.51138,-1.0625,23.9375,9.125,0.0849609,-0.606934,-0.502441,4,-1,6,5,-2,-7,0,-9,11293
-2.15833,0.164856,-1.51616,51.625,-2,23.1875,-0.163574,-0.631836,-0.695801,4,1,-2,-5,-2,1,-5,-1,11310
-2.13992,0.177043,-1.5149,75,-24.8125,24.0625,-0.226563,-0.815918,-0.911621,1,0,-4,-7,0,-3,-3,-1,11328
-2.1261,0.193708,-1.51198,63.625,-36.5,33.0625,-0.279297,-0.984863,-1.04492,0,0,2,-3,1,3,-1,-6,11345
-2.11482,0.212173,-1.51391,64.875,-33.8125,53.3125,-0.140625,-0.910156,-1.07861,-3,-2,5,-4,-4,3,-2,0,11363
-2.11482,0.212173,-1.51391,64.875,-33.8125,53.3125,-0.140625,-0.910156,-1.07861,6,-3,-4,-12,-4,-5,10,-6,11380
-2.10825,0.23492,-1.52192,64,-35.3125,84.8125,0.124023,-0.609863,-1.03906,6,-3,-4,-12,-4,-5,10,-6,11397
-2.09588,0.277257,-1.52813,45.625,-52.125,119.625,0.253418,-0.603516,-0.743164,-5,0,-3,-6,-7,-1,-5,6,11414
-2.08914,0.322095,-1.53604,26.25,-54.4375,137.625,0.797852,-0.798828,-0.475586,-39,1,-3,32,-6,-13,-75,25,11432
-2.0722,0.37408,-1.53572,48.25,-73.5,129.938,2.30029,-0.955566,-0.242188,-17,-6,-18,-15,4,1,-29,9,11448
-2.03496,0.455967,-1.52327,92.0625,-138,192.563,2.81494,-0.939453,-0.114258,11,-5,-12,-19,-1,-8,16,-18,11464
-1.95447,0.566824,-1.49203,187.063,-202.375,257.438,3.46973,-1.20605,0.256836,0,-4,0,-8,-3,9,9,-1,11482
-1.95447,0.566824,-1.49203,187.063,-202.375,257.438,3.46973,-1.20605,0.256836,-4,0,-2,3,-16,-8,-18,3,11498
-1.8521,0.678419,-1.44318,211.563,-211.875,265.625,3.11426,-1.12646,0.523926,0,-1,1,7,-1,4,8,3,11515
-1.77719,0.768726,-1.40051,133.313,-151.813,229.063,2.51514,-0.387695,0.382813,5,0,8,12,7,2,13,8,11532
-1.72643,0.847628,-1.35555,52.4375,-128.5,206.188,2.0083,-0.233398,0.300781,-8,-5,-7,-9,-5,-1,7,0,11549
-1.55988,1.03448,-1.1678,23.8125,-122.063,163.75,1.13525,0.164551,0.210938,-2,1,-3,-8,-6,-3,-4,-1,11615
-1.4692,1.07826,-1.07685,31.3125,-118.063,134.063,0.763184,0.299316,0.159668,-4,0,-1,-8,-4,-1,-3,-6,11633
-1.37033,1.10905,-0.980546,36.4375,-109.125,103.313,0.555664,0.461914,0.130371,18,-4,5,2,0,-2,1,-6,11650
-1.2516,1.13748,-0.868753,41,-99.5,80.5625,0.24707,0.650391,0.183594,-1,-1,-1,4,-8,-3,-11,3,11667
-1.12247,1.15895,-0.758439,64.8125,-76.25,56.5625,0.00488281,0.778809,0.327637,7,-1,-8,-5,-8,-2,5,-8,11684
-1.01465,1.17071,-0.663609,36,-50.4375,19.0625,-0.102539,0.948242,0.45459,-9,-2,-8,1,2,0,2,-3,11700
-1.01465,1.17071,-0.663609,36,-50.4375,19.0625,-0.102539,0.948242,0.45459,-1,-2,-2,2,-4,-2,2,6,11717
-0.938874,1.17605,-0.594891,7.3125,-18.5,-11.4375,-0.186523,0.987305,0.611328,-10,-2,-7,0,-2,-8,3,4,11735
-0.916855,1.16904,-0.576481,-15.375,15.25,-63.75,-0.183594,0.882813,0.734375,-19,-4,2,-2,-2,-1,1,-1,11752
-1.03002,1.14782,-0.672017,-80.5,66.0625,-127.188,-0.0180664,0.958984,0.62793,7,-2,8,15,-2,-6,-23,4,11769
-1.21027,1.11348,-0.81541,-150.938,121.688,-180.5,0.277832,1.14844,0.419922,8,2,-5,-14,1,6,12,-5,11786
-1.21027,1.11348,-0.81541,-150.938,121.688,-180.5,0.277832,1.14844,0.419922,39,7,-6,4,-6,-6,11,-11,11803
-1.41009,1.05356,-0.967094,-192.313,158.625,-223.625,0.869141,0.882324,0.320313,39,7,-6,4,-6,-6,11,-11,11820
-1.59416,0.967326,-1.10036,-203.625,186.063,-260.188,2.44922,0.240723,0.0751953,-38,5,-5,29,-6,-2,-49,7,11838
-1.73961,0.855138,-1.21517,-156.563,231.625,-300.75,3.7251,-0.341797,-0.0952148,-43,3,-19,-17,-11,-3,-33,-1,11856
-1.83194,0.741819,-1.30358,-82.625,242.375,-279.563,3.6958,-0.679199,0.144531,14,-6,0,-10,-3,1,16,-8,11872
-2.01747,0.377679,-1.46173,-137.313,125.938,-188.563,2.19141,-0.410645,-0.47168,-9,-5,-6,-12,8,-3,14,-5,11942
-2.01747,0.377679,-1.46173,-137.313,125.938,-188.563,2.19141,-0.410645,-0.47168,7,-2,-4,-3,-8,0,5,-5,11960
-2.08975,0.315043,-1.46777,-201.125,97.75,-151.438,1.42627,-0.463379,-0.437012,6,-1,-1,-7,0,2,-4,6,11977
-2.14133,0.264602,-1.47491,-140,81.9375,-98.9375,0.791016,-0.711914,-0.612793,6,-1,-1,-7,0,2,-4,6,11994
-2.17277,0.22085,-1.47984,-80.9375,55.625,-61.625,0.422852,-0.741699,-0.609863,-6,-2,-3,-3,-4,1,8,-7,12011
-2.19047,0.195152,-1.48401,-40.5,36.4375,-34.5,0.168945,-0.68457,-0.627441,-8,-1,-4,-3,-1,1,-5,-7,12028
-2.19467,0.188975,-1.48665,-0.5625,7.1875,-0.375,0.00146484,-0.720703,-0.701172,6,-2,0,-5,3,-1,6,2,12045
-2.18598,0.196793,-1.48464,38.5,-21.5625,15.25,-0.178711,-0.766113,-0.79541,-2,-1,-4,-8,-8,0,2,-1,12062
-2.18598,0.196793,-1.48464,38.5,-21.5625,15.25,-0.178711,-0.766113,-0.79541,1,-1,-4,1,0,1,2,2,12080
-2.17485,0.210849,-1.47581,45.75,-41.5,9.1875,-0.378906,-0.789551,-0.879395,3,-4,-9,-13,5,1,0,-8,12096
-2.16868,0.231765,-1.46421,37.75,-64,25.3125,-0.355469,-0.883789,-1.07813,-10,1,13,15,0,-3,-30,7,12113
-2.17197,0.260061,-1.46397,22.3125,-65.375,80.1875,-0.0371094,-0.842285,-1.13916,4,1,5,8,-1,-5,13,-9,12130
-2.17197,0.260061,-1.46397,22.3125,-65.375,80.1875,-0.0371094,-0.842285,-1.13916,13,-4,-9,-27,-9,0,41,-20,12148
-2.16286,0.362158,-1.46485,25.4375,-97.5,137.688,0.311035,-0.716797,-0.541016,-14,2,11,23,7,-4,-22,13,12165
-2.13776,0.412756,-1.46156,65.4375,-99,137.188,1.04346,-0.984863,-0.409668,30,-4,9,-25,11,9,17,-10,12182
-2.13776,0.412756,-1.46156,65.4375,-99,137.188,1.04346,-0.984863,-0.409668,30,-4,9,-25,11,9,17,-10,12198
-1.80887,0.78891,-1.35193,154.125,-140.125,240.5,3.28174,-0.717285,0.160645,18,-1,8,2,2,0,18,-3,12270
-1.7567,0.863192,-1.32183,86,-101.938,195.688,2.58252,-0.361328,0.220703,1,-1,4,-9,3,9,25,-3,12287
-1.70603,0.926261,-1.27993,51.5,-102.938,166.313,2.32959,-0.589355,0.00537109,-7,0,2,5,0,-4,-2,4,12305
-1.64471,0.980322,-1.23228,64.25,-95.125,145.563,1.92383,-0.239258,0.0297852,-7,-4,-3,-8,-1,6,-5,2,12322
-1.64471,0.980322,-1.23228,64.25,-95.125,145.563,1.92383,-0.239258,0.0297852,-7,-4,-3,-8,-1,6,-5,2,12338
-1.55672,1.02475,-1.1651,88.6875,-105.5,134.625,1.28076,0.0854492,0.106934,0,-1,-3,9,-2,5,-1,-1,12355
-1.44381,1.06131,-1.07603,101.813,-118.75,115.625,0.803711,0.300781,0.104004,-1,0,-3,9,4,-10,8,-13,12372
-1.3252,1.08615,-0.979541,95.125,-114.25,91.4375,0.790527,0.569336,0.0444336,-3,0,-4,-4,-1,-4,0,-4,12389
-1.3252,1.08615,-0.979541,95.125,-114.25,91.4375,0.790527,0.569336,0.0444336,-1,-3,-3,-3,-1,7,-4,1,12406
-1.07541,1.13397,-0.748018,30.75,-95.5,70.4375,0.189453,0.813965,0.262695,2,-2,3,4,10,5,-1,-5,12423
-1.07541,1.13397,-0.748018,30.75,-95.5,70.4375,0.189453,0.813965,0.262695,-5,-2,-3,-13,-8,-3,-3,7,12440
-0.952155,1.14018,-0.624428,6.1875,-87.25,35.9375,-0.0859375,0.881836,0.503418,5,0,-3,1,4,2,8,-8,12457
-0.840628,1.13284,-0.509231,-14.8125,-79.375,2.0625,-0.307617,0.978516,0.772461,-8,-2,-7,-20,-2,2,2,1,12474
-0.758564,1.12069,-0.417897,-41.6875,-62.3125,-23.6875,-0.362793,1.10547,0.817383,-6,-2,-14,2,4,4,-39,14,12491
-0.758564,1.12069,-0.417897,-41.6875,-62.3125,-23.6875,-0.362793,1.10547,0.817383,7,-1,0,9,-7,-4,-9,0,12508
-0.824356,1.09236,-0.458728,-64.6875,56.0625,-101.875,0.23877,0.753418,0.686035,29,6,11,29,-2,5,-14,-5,12525
-1.32035,1.01429,-0.872694,-214.188,188.375,-216.625,3.81836,0.173828,-0.597168,-10,-14,-7,-41,-9,12,1,1,12596
-1.55721,0.934719,-1.06208,-229.313,272.625,-265.688,3.54248,-0.758789,-0.124512,-35,-2,-15,-12,6,-18,1,-14,12613
-1.71699,0.841285,-1.20108,-148.313,268.938,-250.188,3.82373,-0.925781,-0.104492,32,-3,4,-2,-20,-3,42,-13,12632
-1.84131,0.738529,-1.31286,-128.438,281.813,-241.375,3.38672,-0.733887,-0.42041,9,-5,44,8,-10,-3,9,4,12649
-1.91067,0.63751,-1.38696,-63.5625,243.438,-226.75,3.12305,-0.516113,-0.504883,3,-4,-28,-2,-12,-8,7,3,12666
-1.95384,0.552532,-1.42926,-56,180.25,-192.563,2.75,-0.189941,-0.659668,-10,-3,-17,1,1,-4,-2,-4,12683
-1.95384,0.552532,-1.42926,-56,180.25,-192.563,2.75,-0.189941,-0.659668,-3,0,-4,0,-3,5,1,3,12700
-2.00469,0.482343,-1.44953,-117.125,126.375,-164.375,1.88281,-0.0683594,-0.618652,4,0,-1,0,5,0,9,-4,12716
-2.09297,0.421942,-1.45839,-233.875,86.75,-126.125,1.22852,-0.0297852,-0.584473,10,2,5,-8,-1,2,1,-6,12734
-2.17645,0.376199,-1.4685,-224.813,81.75,-82,0.791992,-0.593262,-0.652832,-4,3,0,-11,-2,-1,-2,3,12750
-2.23908,0.340343,-1.47846,-170.563,76.25,-57.625,0.319824,-0.848633,-0.604004,-3,-2,0,-4,0,0,-4,5,12767
-2.26992,0.308146,-1.48414,-85.25,52.25,-38.4375,0.097168,-0.837402,-0.662598,-5,-2,-2,2,1,0,0,-15,12784
-2.26992,0.308146,-1.48414,-85.25,52.25,-38.4375,0.097168,-0.837402,-0.662598,-2,-4,-3,-2,-2,-1,6,-7,12802
-2.26909,0.291042,-1.48624,6.4375,20.4375,-17.0625,-0.00585938,-0.855469,-0.761719,-10,2,-5,3,4,5,-9,9,12820
-2.24797,0.28932,-1.48366,72,-14,-0.625,-0.125488,-0.717773,-0.833008,2,-2,-4,-1,8,2,-1,-10,12837
-2.21064,0.302047,-1.47221,103.938,-50.375,10.4375,-0.202637,-0.687988,-1.01172,10,-1,0,-4,-9,0,4,1,12853
-2.19668,0.364875,-1.47178,4.8125,-47.25,96.6875,0.298828,-0.628418,-0.885742,26,2,19,-33,-4,2,25,-18,12921
-2.19393,0.379021,-1.48178,17.25,-35.125,95.5,0.530273,-0.728516,-0.50293,-13,-4,-22,-8,-10,-8,-29,5,12938
-2.17011,0.371789,-1.49083,68.0625,-22.9375,81.0625,1.10645,-1.01221,-0.505371,-17,2,7,24,1,2,-54,13,12955
-2.1312,0.421464,-1.48903,109.875,-82.0625,116.313,2.48584,-1.10352,-0.36377,17,2,-15,-60,4,-3,41,-26,12971
-2.1312,0.421464,-1.48903,109.875,-82.0625,116.313,2.48584,-1.10352,-0.36377,4,4,16,-6,-6,2,-10,3,12988
-1.97852,0.631111,-1.45124,223.813,-210,261.813,3.69727,-1.02637,0.30127,21,-3,-7,-20,-17,-5,38,-13,13006
-1.97852,0.631111,-1.45124,223.813,-210,261.813,3.69727,-1.02637,0.30127,-34,-7,-16,34,25,4,-67,23,13023
-1.88367,0.738369,-1.4178,210.875,-178.125,261.813,3.35547,-0.854492,0.34082,8,-8,-21,-11,1,-1,18,-6,13041
-1.82776,0.831944,-1.38695,97.6875,-135.5,239.563,2.4209,-0.103516,0.381836,3,0,-9,5,-6,-12,1,5,13059
-1.78738,0.914592,-1.34866,31.625,-124.125,214,2.0083,-0.163086,0.0551758,0,-1,-9,-16,16,12,0,8,13076
-1.75138,0.985889,-1.2938,-24.8125,-130.188,181.875,1.896,-0.122559,0.0419922,2,0,-3,-4,7,-3,17,-13,13094
-1.68305,1.05242,-1.2147,2.75,-145.25,170.75,1.64014,-0.0292969,0.120117,3,0,-2,-3,8,-2,2,-4,13110
-1.56623,1.11265,-1.10562,56.875,-153,170.313,1.26318,0.234375,0.180176,5,0,5,-9,-8,-4,5,-3,13126
-1.56623,1.11265,-1.10562,56.875,-153,170.313,1.26318,0.234375,0.180176,-3,-2,-6,8,-8,-3,0,-2,13144
-1.40704,1.16452,-0.965264,88.4375,-150.5,159.625,0.668945,0.453613,0.26123,2,0,-4,1,-6,-4,5,-2,13161
-1.23226,1.19549,-0.81352,95.5625,-133.125,119.563,0.46582,0.624023,0.267578,-7,-8,-7,-8,2,7,-1,-2,13178
-0.659738,1.2296,-0.313393,-27.9375,-27.1875,-23.0625,-0.348633,1.00146,0.499023,-8,-6,1,6,7,0,3,-1,13257
-0.668282,1.21554,-0.301218,-81.1875,-7,-73.875,-0.09375,0.878418,0.529297,-7,-1,-3,-20,-5,5,13,-1,13275
-0.791042,1.19773,-0.400228,-91.9375,37.125,-122.375,0.168457,0.840332,0.463379,-3,0,0,-14,6,-1,2,6,13293
-0.950154,1.17446,-0.534896,-103.125,74.375,-155.438,0.31543,0.803711,0.354492,-6,2,7,39,-1,0,-41,10,13311
-1.14715,1.13602,-0.695937,-145.188,110.938,-193.25,0.87793,0.73877,0.0874023,-11,-3,-6,1,2,0,-3,12,13328
-1.3704,1.06276,-0.877874,-174.75,160.75,-272.563,2.93701,0.142578,-0.312988,-35,-3,-2,-17,-11,4,-6,-19,13345
-1.3704,1.06276,-0.877874,-174.75,160.75,-272.563,2.93701,0.142578,-0.312988,-12,2,-8,-38,10,1,10,-5,13362
-1.57159,0.961913,-1.05175,-153.375,234.438,-313.313,3.44189,-0.628418,-0.0791016,21,-7,-12,18,2,-1,43,-16,13379
-1.71338,0.849883,-1.17895,-118.813,247.688,-303.5,3.88965,-0.799316,-0.00488281,19,-5,-5,4,-6,-4,15,1,13396
-1.79671,0.739434,-1.26817,-55.9375,234.25,-279,3.63818,-0.778809,-0.270996,13,-2,7,-3,-5,-6,9,3,13413
-1.84811,0.636904,-1.33231,-30.5625,210.938,-249,3.13184,-0.570801,-0.205566,14,1,7,5,-2,9,0,-5,13431
-1.89055,0.544303,-1.37806,-48.625,182.125,-221.625,2.76611,-0.153809,-0.286133,-5,-1,3,0,3,0,-15,9,13448
-1.95857,0.456156,-1.40718,-154.813,156.438,-211.813,2.31543,0.0576172,-0.388184,10,3,3,-6,8,-1,-1,0,13465
-1.95857,0.456156,-1.40718,-154.813,156.438,-211.813,2.31543,0.0576172,-0.388184,-2,2,-2,0,-8,-6,-1,3,13482
-2.05274,0.385055,-1.42488,-249.625,127.938,-165.25,1.55029,-0.413086,-0.438965,5,0,3,13,2,3,-2,-1,13498
-2.13064,0.329927,-1.44524,-202.563,116.875,-94.0625,0.832031,-0.733398,-0.460938,0,-2,-3,5,-3,1,-2,-1,13515
-2.17992,0.239792,-1.48922,67.0625,-2.1875,17.125,-0.112305,-0.750977,-0.881836,6,-1,4,0,4,-2,8,-5,13596
-2.15966,0.248088,-1.48535,83.0625,-30.125,12.75,-0.27002,-0.842285,-1.04834,-6,-2,1,-2,2,-2,-13,0,13613
-2.14523,0.261027,-1.47784,69.6875,-52.25,26.125,-0.172363,-0.883789,-1.15479,-6,0,3,2,-6,-1,-11,-2,13630
-2.14523,0.261027,-1.47784,69.6875,-52.25,26.125,-0.172363,-0.883789,-1.15479,-2,-3,-8,-17,-10,-3,12,4,13647
-2.14017,0.278649,-1.48142,54.0625,-46.3125,71.125,0.147461,-0.769043,-1.13232,-7,0,4,6,11,0,-19,5,13663
-2.13234,0.315609,-1.49029,35.8125,-43.6875,110.563,0.319824,-0.697754,-0.862305,-15,1,3,22,-9,-5,-31,11,13680
-2.12499,0.356739,-1.50138,32.0625,-44.3125,127.625,0.501953,-0.796875,-0.537598,-4,0,-2,-30,-14,-2,29,-6,13697
-2.12499,0.356739,-1.50138,32.0625,-44.3125,127.625,0.501953,-0.796875,-0.537598,-21,-2,3,14,14,9,-51,16,13715
-2.08882,0.466648,-1.50847,76.25,-97.8125,151,2.51367,-0.846191,-0.17041,-15,2,7,36,-3,2,-15,1,13731
-2.03545,0.570462,-1.49854,138.813,-162.25,250.938,3.04199,-0.797852,0.14502,-8,3,5,14,3,-3,-12,-1,13748
-1.9561,0.695827,-1.46471,169.75,-219.813,295.5,3.66309,-0.941406,0.273926,10,0,2,-1,-2,-2,-7,3,13765
-1.9561,0.695827,-1.46471,169.75,-219.813,295.5,3.66309,-0.941406,0.273926,-2,-1,-7,-8,-11,-1,-9,1,13781
-1.87563,0.813364,-1.42517,152.75,-191.688,289.188,3.2749,-0.908203,0.374023,4,-4,-2,13,1,-2,5,-1,13798
-1.80956,0.916706,-1.38025,91.375,-160.438,263,2.49658,-0.213379,0.498535,-17,-9,-4,9,7,-4,-8,7,13815
-1.73861,1.00511,-1.32305,68.75,-143.25,228.563,2.14795,-0.078125,0.119141,4,5,11,7,5,0,1,0,13832
-1.67749,1.08472,-1.24741,-12.3125,-138.875,211.063,2.04932,0.0102539,0.133301,0,-4,-1,-1,2,-3,-1,3,13849
-1.23386,1.2517,-0.804561,65.0625,-136.125,140.063,0.718262,0.442383,0.137695,0,-4,-2,-2,-2,2,15,-13,13920
-1.04891,1.27137,-0.63614,68.3125,-107.813,103.625,0.419434,0.644531,0.0795898,6,-1,2,-3,-16,-6,-4,0,13937
-0.844146,1.28569,-0.440953,38.0625,-88.9375,77.75,0.0566406,0.764648,0.260742,-13,0,-2,-4,4,5,-3,-2,13954
-0.670676,1.28345,-0.277271,28.9375,-66.5625,36.0625,-0.126953,0.825195,0.45752,-1,-3,-1,-5,-3,0,2,1,13972
-0.560578,1.27504,-0.176062,16.75,-37.375,-11.25,-0.180664,0.958496,0.508789,1,-1,-5,5,3,0,-3,-1,13988
-0.512859,1.26467,-0.135733,2.3125,-6.25,-53.0625,-0.108398,1.01074,0.580078,9,8,9,4,-2,4,0,-1,14005
-0.512859,1.26467,-0.135733,2.3125,-6.25,-53.0625,-0.108398,1.01074,0.580078,-2,-6,-5,10,-2,-5,-7,2,14022
-0.51904,1.25312,-0.144403,-19.625,17.9375,-89.8125,0.0317383,1.02637,0.64502,-18,-2,3,1,-5,-1,2,1,14039
-0.657805,1.24262,-0.276126,-46.6875,51.9375,-134.813,0.240723,1.18164,0.61377,-1,2,-3,-4,-9,-3,8,-13,14056
-0.854879,1.22288,-0.456846,-83.3125,86.8125,-182.5,0.369629,1.26465,0.522461,-20,-4,0,-42,-9,0,10,2,14074
-1.12625,1.1794,-0.678038,-189.625,128.563,-237.188,1.05762,0.879883,0.168945,13,-2,10,12,-10,-10,13,-6,14091
-1.43997,1.09069,-0.922796,-262.563,212.625,-326,3.82959,0.11377,-0.369629,-82,-2,-35,-43,-52,6,-117,54,14109
-1.69442,0.972554,-1.13103,-215.938,305.938,-338.813,4.14014,-0.960449,-0.0878906,39,-1,-8,-39,0,0,33,-22,14126
-1.69442,0.972554,-1.13103,-215.938,305.938,-338.813,4.14014,-0.960449,-0.0878906,21,-4,-5,-54,-5,-3,41,-11,14143
-1.87609,0.854835,-1.27488,-193.25,317.938,-276.125,4.31836,-1.44141,-0.0239258,4,-2,-3,26,-21,-5,-7,21,14159
-1.96663,0.74018,-1.36349,-77.625,280.125,-247.438,3.47852,-1.13232,-0.140137,2,-4,10,30,52,9,-14,7,14177
-2.16944,0.429317,-1.51965,-154.438,153.063,-91.125,1.44287,-0.488281,-0.40625,-8,1,-9,-12,44,-3,-4,-10,14245
-2.16944,0.429317,-1.51965,-154.438,153.063,-91.125,1.44287,-0.488281,-0.40625,1,1,0,6,33,4,-8,11,14262
-2.19889,0.378229,-1.55041,-48.125,135.75,-53.6875,1.16455,-0.682129,-0.584961,-11,-7,4,11,9,2,-22,1,14280
-2.19669,0.33412,-1.57443,41.6875,89.25,-20,0.562988,-0.641113,-0.666016,5,-3,-3,-16,-4,-3,2,0,14297
-2.18158,0.32099,-1.58617,72.6875,29.75,1.9375,0.0737305,-0.474121,-0.677246,-3,0,-1,2,7,2,-8,4,14314
-2.18036,0.32321,-1.58647,34.1875,-15.6875,5.875,-0.166016,-0.421387,-0.845215,-11,2,-3,-2,1,2,-10,-2,14332
-2.1892,0.323825,-1.58141,-4.0625,-31.25,5.0625,-0.101563,-0.755859,-1.01807,4,1,-1,-3,-1,0,-5,1,14350
-2.1949,0.326315,-1.57999,-0.1875,-27.4375,21.625,-0.143555,-1.13916,-1.13721,-1,-1,-2,-5,-1,-8,-14,-2,14367
-2.20033,0.334814,-1.5849,14.3125,-28.125,46.625,-0.0595703,-0.949707,-1.15381,-4,-3,-1,-12,-8,0,-1,-1,14385
-2.20033,0.334814,-1.5849,14.3125,-28.125,46.625,-0.0595703,-0.949707,-1.15381,-6,-4,0,1,0,-3,0,0,14402
-2.20301,0.354795,-1.58685,18.25,-57.75,73.4375,0.140137,-0.676758,-0.946289,3,2,10,17,-1,-4,-12,-3,14418
-2.19758,0.382602,-1.58604,27.9375,-80.0625,97.625,0.317383,-0.671387,-0.738281,-3,-3,-11,-13,-2,4,27,-3,14435
-2.18297,0.424175,-1.58701,41.625,-75.5625,111.188,0.562988,-0.760254,-0.435547,-10,1,12,22,-2,0,-14,5,14452
-2.16474,0.459178,-1.59221,53.3125,-57.125,111.063,1.12939,-0.876953,-0.179688,-11,0,11,20,24,1,-61,14,14470
-2.13367,0.515709,-1.5854,79.6875,-103.188,125.938,2.47461,-0.758789,0.0341797,-21,0,-9,-60,-10,-2,-11,-14,14487
-2.13367,0.515709,-1.5854,79.6875,-103.188,125.938,2.47461,-0.758789,0.0341797,10,-5,-15,-14,2,5,24,-6,14504
-1.8407,1.03824,-1.41557,20.8125,-142.688,200.313,1.84424,-0.282227,0.255371,1,-6,6,-3,4,0,7,5,14587
-1.78629,1.11257,-1.35314,-1.5625,-133.563,186.5,1.78662,-0.157715,0.174805,-1,0,3,-7,-5,7,0,5,14603
-1.78629,1.11257,-1.35314,-1.5625,-133.563,186.5,1.78662,-0.157715,0.174805,0,-1,-1,3,1,-8,2,-8,14621
-1.71005,1.18358,-1.26888,-1.8125,-133.5,182.125,1.66895,0.116699,0.140137,8,-1,-4,1,-4,-5,-7,-3,14638
-1.57588,1.24561,-1.13701,28.875,-141.438,171.563,1.18408,0.139648,0.192871,-8,1,-1,-1,-4,-1,-8,1,14655
-1.38169,1.29258,-0.959786,70.4375,-134.813,147.188,0.88623,0.228516,0.155762,-8,1,-1,-1,-4,-1,-8,1,14672
-1.15106,1.3211,-0.75219,85.125,-120.188,118.688,0.571289,0.483887,0.133301,11,6,6,-3,-3,3,1,-1,14689
-1.15106,1.3211,-0.75219,85.125,-120.188,118.688,0.571289,0.483887,0.133301,3,-1,-5,0,-1,-1,3,-9,14706
-0.911847,1.33486,-0.536819,84.125,-103,98.75,0.214355,0.691406,0.229004,3,-1,1,10,-1,3,-5,1,14723
-0.635216,1.34152,-0.281202,66,-78.3125,76.1875,-0.0107422,0.854492,0.387207,13,-1,-4,-8,-9,-9,-5,-10,14740
-0.415646,1.33405,-0.0753951,36.25,-51.25,35.625,-0.116211,1.06396,0.541504,-21,-1,-6,-5,4,5,-8,0,14757
-0.28515,1.32425,0.0466239,11.3125,-15.5,-14.4375,-0.242188,1.22852,0.627441,5,-7,-10,-19,-3,-8,21,-4,14773
-0.262893,1.31643,0.0682045,-18.5,8.625,-75,-0.207031,1.22998,0.584473,-8,-5,-1,-11,4,0,5,3,14791
-0.443449,1.30917,-0.0953827,-70.375,30.875,-139.563,0.12793,1.23682,0.483887,-20,-3,-13,11,1,-6,-14,1,14809
-0.711786,1.29518,-0.328054,-131.5,71.5,-188.625,0.473145,1.23291,0.404785,-21,3,0,12,-6,-12,-25,3,14827
-0.711786,1.29518,-0.328054,-131.5,71.5,-188.625,0.473145,1.23291,0.404785,-20,-2,1,25,-4,-14,-38,8,14844
-1.6585,1.06028,-1.1246,-171,267.188,-327.25,3.5874,-0.966309,0.0395508,14,-7,0,-23,1,8,15,0,14903
-1.80808,0.951495,-1.25333,-116.688,245.438,-275,4.3667,-1.21631,-0.20459,59,-5,12,22,-3,-11,49,-32,14919
-1.89947,0.854502,-1.34571,-53.6875,235.25,-221.188,3.40625,-1.05029,-0.290039,-8,-3,-5,-1,-7,0,-4,8,14936
-1.94749,0.777091,-1.40653,-10.4375,188.688,-166.875,2.72949,-0.820801,-0.3125,-3,-4,3,4,-1,-3,-6,6,14954
-1.988,0.710099,-1.4466,-38.375,152.375,-144.438,2.11133,-0.232422,-0.177246,-2,-1,1,-3,0,2,-7,1,14970
-2.06819,0.650204,-1.47582,-177.188,133.875,-125.313,1.73389,0.0117188,-0.238281,7,3,2,-10,2,3,9,-7,14988
-2.06819,0.650204,-1.47582,-177.188,133.875,-125.313,1.73389,0.0117188,-0.238281,6,3,0,-8,3,5,11,6,15004
-2.15994,0.592589,-1.51025,-205.75,141.688,-78.75,1.32617,-0.49707,-0.287109,-8,-2,2,2,0,-4,-7,4,15021
-2.23267,0.538301,-1.54029,-163.125,139,-67.9375,0.850098,-0.680176,-0.419922,-8,0,-1,10,-6,-2,-11,3,15038
-2.28143,0.49939,-1.56101,-109.938,99.4375,-40.1875,0.668457,-0.618652,-0.562012,-10,-2,-3,-1,-3,0,-7,-3,15055
-2.30533,0.464637,-1.57693,-38.5625,60.25,-14,0.37793,-0.521484,-0.654297,-5,1,0,-4,3,-10,-2,0,15072
-2.30533,0.464637,-1.57693,-38.5625,60.25,-14,0.37793,-0.521484,-0.654297,-12,1,-2,-3,5,0,-20,3,15089
-2.28801,0.452098,-1.59497,79.9375,-10.4375,20.3125,-0.269043,-0.709961,-1.12061,6,1,3,-1,3,2,0,-3,15107
-2.28801,0.452098,-1.59497,79.9375,-10.4375,20.3125,-0.269043,-0.709961,-1.12061,-2,0,-3,-2,-1,-5,-3,1,15124
-2.27059,0.456451,-1.59259,72.25,-31.25,7.875,-0.475586,-0.82373,-1.2085,4,0,2,3,3,-2,5,-1,15141
-2.25517,0.459469,-1.58784,61.875,-42.5,14,-0.289551,-0.928711,-1.23682,-10,-3,-2,-15,-7,6,4,5,15158
-2.24434,0.529016,-1.6051,-2.625,-84.25,119.125,0.46875,-0.726074,-0.635742,7,0,8,16,5,1,-6,3,15216
-2.24896,0.583159,-1.60077,-19.9375,-105.063,114.75,1.68555,-0.943848,-0.398926,-21,-2,-14,-31,-4,0,11,4,15232
-2.24896,0.583159,-1.60077,-19.9375,-105.063,114.75,1.68555,-0.943848,-0.398926,-8,-2,3,12,24,-4,-8,0,15249
-2.22473,0.650036,-1.5911,53.3125,-136.313,136.625,2.71436,-1.13281,-0.0317383,0,-3,-13,-27,2,0,15,-7,15266
-2.16376,0.753373,-1.57445,144.125,-202.875,219.188,3.01807,-1.19287,0.203613,28,-1,9,26,-1,4,12,-20,15283
-2.05316,0.879009,-1.52928,222.188,-261.188,263.938,3.49023,-1.12598,0.445313,0,1,4,7,-6,-5,-10,11,15300
-1.94357,0.982401,-1.47797,196.063,-202.75,233.625,2.92383,-1.03809,0.565918,11,0,-1,15,-3,-1,9,0,15318
-1.87801,1.06865,-1.43948,93.5,-136.438,213.75,2.25049,-0.00927734,0.435547,0,0,8,-4,1,-5,-8,14,15336
-1.83329,1.14199,-1.39708,19.5625,-111.688,186.125,1.96924,-0.230469,0.24707,-6,2,4,2,1,-5,-5,4,15353
-1.78774,1.21164,-1.33787,-26.125,-110.563,178.375,1.7998,-0.136719,0.209473,5,-1,-1,-5,4,0,13,-7,15370
-1.78774,1.21164,-1.33787,-26.125,-110.563,178.375,1.7998,-0.136719,0.209473,5,1,-2,2,7,3,1,-4,15387
-1.70075,1.27474,-1.24268,-10.5625,-114.688,168.375,1.36523,0.0610352,0.226563,-15,0,-3,1,-3,-2,-8,2,15404
-1.55142,1.32802,-1.09991,32.6875,-114.375,146.375,0.974121,0.195313,0.187988,5,1,5,13,4,-2,-4,-4,15421
-1.35309,1.36446,-0.917813,58.625,-99.875,113.375,0.587402,0.357422,0.146973,11,-3,-3,-2,-3,-8,5,-4,15438
-1.09491,1.38997,-0.677321,60.6875,-92.6875,83.5625,0.286621,0.47168,0.0932617,22,10,17,12,2,4,7,-8,15455
-0.78389,1.40057,-0.381863,50.75,-85.8125,74.0625,0.123047,0.591309,0.194824,-10,-5,-14,-18,7,4,8,-5,15472
-0.124721,1.36839,0.272385,-18.3125,-28.25,1.875,-0.249023,0.943848,0.588379,10,-4,3,1,-6,-2,24,-12,15544
-0.0971223,1.35838,0.305471,-29.375,3.875,-54.375,-0.195313,1.0376,0.562012,-6,-4,-10,-22,-9,-3,17,-11,15561
-0.283689,1.3624,0.137714,-69.5,38.875,-118.375,0.0532227,1.29932,0.469238,-6,0,9,-23,-7,-5,4,-9,15579
-0.598238,1.35982,-0.14668,-109.313,74.8125,-176.625,0.406738,1.28857,0.447754,-15,-4,-6,-12,-9,-3,7,0,15597
-1.03851,1.32428,-0.540507,-161.25,117.188,-247.438,1.92725,0.713867,-0.0664063,-12,-4,-11,-14,3,2,-15,-3,15614
-1.47354,1.23442,-0.92005,-203.125,217.75,-337.688,2.93018,-0.600586,-0.246094,-6,1,-16,-29,12,-7,7,-19,15632
-1.73003,1.12204,-1.14148,-147.625,252.875,-312.688,3.42236,-1.0249,-0.00683594,-19,1,16,25,-5,-3,-12,14,15649
-1.73003,1.12204,-1.14148,-147.625,252.875,-312.688,3.42236,-1.0249,-0.00683594,26,-3,2,8,4,4,37,-7,15666
-1.85154,1.00383,-1.25691,-58.6875,231.063,-295.188,4.09473,-1.00879,-0.271973,54,-3,1,26,4,-1,26,5,15683
-1.92904,0.892369,-1.3329,-44.9375,221,-263.688,3.77783,-0.69873,-0.533203,-10,-8,-3,0,1,2,1,-1,15700
-1.96853,0.798529,-1.3748,-23.3125,173.313,-220.563,3.0752,-0.649902,-0.598633,4,-3,3,4,-9,-8,17,-11,15717
-2.00716,0.720593,-1.39168,-77.5,122.375,-190,2.2627,-0.224121,-0.463867,-2,1,6,-1,2,-6,-7,6,15734
-2.00716,0.720593,-1.39168,-77.5,122.375,-190,2.2627,-0.224121,-0.463867,-3,-1,2,-5,5,0,-8,2,15751
-2.15604,0.588694,-1.41655,-186.438,116.75,-118.125,1.06494,-0.722168,-0.466309,1,0,-1,-3,-2,3,5,2,15768
-2.15604,0.588694,-1.41655,-186.438,116.75,-118.125,1.06494,-0.722168,-0.466309,-2,0,0,12,-7,-7,-8,-1,15785
-2.2106,0.533419,-1.4311,-135.563,110.313,-93.875,0.681641,-0.80127,-0.458984,-5,0,-3,1,-2,3,6,3,15803
-2.24109,0.444625,-1.45063,32.75,-30.375,6,-0.445313,-0.557129,-0.786621,5,0,-3,-3,-3,-3,7,-3,15873
-2.23093,0.459701,-1.44009,35.0625,-64.1875,22.375,-0.472656,-0.915527,-1.09912,0,-4,-9,-7,0,-4,11,-20,15890
-2.22956,0.468277,-1.44205,23.125,-52.125,62.0625,0.0600586,-1.13916,-1.2085,-6,-1,-1,-2,-2,-4,-23,-5,15907
-2.22956,0.468277,-1.44205,23.125,-52.125,62.0625,0.0600586,-1.13916,-1.2085,10,-3,0,-13,-5,0,27,-14,15925
-2.23919,0.474819,-1.4563,11.1875,-32.1875,83.3125,0.45459,-0.745605,-0.992188,4,-4,-5,-34,-3,3,29,-8,15943
-2.23668,0.486824,-1.47155,36.5,-31.1875,94.375,0.458008,-0.647949,-0.692383,-8,0,0,-16,-1,-1,-8,11,15960
-2.23116,0.520775,-1.49334,43.5625,-27.0625,125.563,0.635742,-0.938965,-0.5,-15,-3,0,5,15,3,-39,11,15978
-2.23146,0.569709,-1.51147,25.9375,-51,138.188,1.59619,-1.02344,-0.380859,-12,0,-4,9,-20,-6,-36,4,15995
-2.21602,0.651419,-1.5173,53.8125,-131.563,194.25,2.79688,-0.762695,-0.283691,7,3,0,21,11,2,23,-20,16013
-2.21602,0.651419,-1.5173,53.8125,-131.563,194.25,2.79688,-0.762695,-0.283691,-10,0,4,4,-12,0,-17,-3,16031
-2.18192,0.766911,-1.52373,109.688,-183.25,275.688,3.2085,-1.02051,0.158691,37,-2,-6,-32,19,4,48,-14,16048
-2.12084,0.877925,-1.513,152.5,-192.125,255.25,3.17041,-0.89209,0.111328,-5,-5,5,5,-1,-14,-2,-4,16065
-2.06492,0.969031,-1.51075,155.063,-133.875,223.938,2.74023,-0.663574,0.0693359,-3,0,2,6,-18,3,3,9,16082
-2.03115,1.05078,-1.50315,78.3125,-117.938,203.063,2.12646,-0.271973,0.0830078,9,-2,-3,-31,4,1,13,-10,16099
-1.99804,1.12486,-1.47579,25.375,-124.063,176.125,2.04492,-0.234375,0.0395508,-8,1,-3,-3,-2,-4,-5,4,16116
-1.9481,1.19122,-1.42164,0.9375,-131.563,150.375,1.90674,-0.195313,0.00195313,-2,-1,-1,-11,0,-3,-2,-1,16133
-1.37494,1.3628,-0.891326,109.25,-164.125,125.875,0.632813,0.308594,0.176758,0,-5,0,-3,-10,-2,-4,3,16199
-1.02644,1.37902,-0.578617,118.563,-144.438,99.3125,0.344238,0.580078,0.214355,7,0,-1,0,-16,2,-4,2,16215
-0.734598,1.37419,-0.318277,101.375,-112.938,67.625,0.0683594,0.827148,0.331543,-6,-3,-4,-14,1,2,4,-6,16232
-0.460602,1.36189,-0.0657678,60.625,-71.3125,35.25,-0.09375,0.960449,0.600098,3,1,-6,-9,4,-3,3,-4,16249
-0.460602,1.36189,-0.0657678,60.625,-71.3125,35.25,-0.09375,0.960449,0.600098,-11,-1,-1,0,4,-1,2,3,16265
-0.300044,1.34748,0.083069,24.6875,-21.75,-5,-0.141602,1.09619,0.78418,14,-4,-8,-8,-6,-2,-3,2,16282
-0.24184,1.33708,0.140486,-13,8.75,-45,-0.172363,1.07471,0.741699,-10,-6,-4,6,0,-2,-20,1,16300
-0.288452,1.3299,0.0973696,-30.375,29,-94.5,-0.00683594,0.909668,0.620117,-2,1,8,-2,-5,0,20,-8,16318
-0.501338,1.33146,-0.103418,-55.25,65.625,-139.813,0.215332,0.932617,0.484375,1,5,-5,-19,-5,6,25,2,16335
-0.804699,1.32553,-0.384327,-91.75,110.313,-177.938,0.487793,0.961914,0.288574,-13,6,-7,-22,-6,-1,11,0,16352
-1.17398,1.28668,-0.706731,-166.188,141.375,-223.813,2.26953,0.743652,-0.250488,-21,-7,-10,29,-25,-22,-67,4,16369
-1.17398,1.28668,-0.706731,-166.188,141.375,-223.813,2.26953,0.743652,-0.250488,6,-4,-2,-14,-39,-21,49,-51,16386
-1.55875,1.20087,-1.02646,-233.438,237.938,-298.5,3.22412,-0.725098,-0.210938,-43,1,-16,-27,-8,6,-12,17,16403
-1.80383,1.09059,-1.22992,-170.313,274,-286.5,3.68115,-1.00391,-0.0620117,31,-11,1,4,10,-3,47,-20,16420
-1.91695,0.977955,-1.34333,-44.1875,251.625,-261.375,3.88086,-1.31445,-0.401855,25,-10,-4,14,5,-7,16,-3,16438
-1.97535,0.877329,-1.41203,-9.6875,215.563,-224.875,3.26123,-0.721191,-0.405273,11,-1,8,17,11,5,11,3,16454
-2.13686,0.642622,-1.48625,-203.875,121.688,-152.188,1.66016,-0.148438,-0.426758,5,2,5,-2,3,-2,0,1,16520
-2.21396,0.571912,-1.50649,-187.5,139.313,-118.938,1.16357,-0.737305,-0.589844,-3,-2,-1,-3,3,5,-6,13,16537
-2.26403,0.515131,-1.52171,-122.188,117.5,-87.4375,0.900879,-0.787109,-0.532227,2,0,-3,5,7,3,10,-8,16555
-2.28615,0.457317,-1.53323,-46.9375,92.0625,-64.25,0.432617,-0.726074,-0.644043,-2,1,-1,4,-9,-2,-5,-3,16572
-2.28615,0.457317,-1.53323,-46.9375,92.0625,-64.25,0.432617,-0.726074,-0.644043,-2,1,-1,4,-9,-2,-5,-3,16589
-2.26587,0.409247,-1.54205,66.625,14.875,-20.375,-0.148926,-0.710938,-0.826172,2,0,1,0,4,1,-9,-5,16606
-2.26587,0.409247,-1.54205,66.625,14.875,-20.375,-0.148926,-0.710938,-0.826172,1,-1,0,-4,3,-6,-1,-5,16623
-2.2442,0.404652,-1.53719,74.25,-18.1875,-9.6875,-0.276855,-0.809082,-0.995605,3,0,-3,-10,-8,-4,-2,1,16640
-2.22829,0.411613,-1.53001,55.375,-43.625,12.4375,-0.366699,-0.96582,-1.09277,-9,-1,3,5,7,4,-16,-1,16657
-2.21733,0.42327,-1.52836,48.5,-53,48.1875,-0.113281,-1.03076,-1.14697,-3,-5,-5,-16,-3,-6,7,-5,16675
-2.21826,0.445876,-1.538,29.4375,-54.375,97.3125,0.169434,-0.727539,-0.94873,-17,1,0,19,-6,-4,-47,16,16693
-2.22227,0.494879,-1.54887,4.5,-69.375,135.438,0.241211,-0.519531,-0.542969,7,-4,-10,-10,-4,-5,1,-3,16710
-2.22183,0.545808,-1.56055,13.625,-75.75,151.438,0.883301,-0.808594,-0.268066,21,-4,16,5,-7,3,19,-17,16725
-2.22183,0.545808,-1.56055,13.625,-75.75,151.438,0.883301,-0.808594,-0.268066,30,-3,-22,-3,-4,0,36,-18,16743
-2.20034,0.607315,-1.56282,65.0625,-101.063,144.625,2.25684,-1.08301,-0.114258,29,5,-6,-80,-3,-2,42,-25,16761
-2.12658,0.694947,-1.55975,206.125,-146.313,204.313,2.91016,-0.975586,0.00341797,-30,-4,-4,53,-9,-17,-29,5,16779
-1.93928,1.10285,-1.47187,-5.5,-140.75,213.688,2.03857,-0.333496,0.245605,-21,-3,5,2,6,2,-17,13,16860
-1.89521,1.1779,-1.42119,-5.6875,-130,181.938,1.93604,-0.237793,0.0473633,-12,-6,-2,13,4,-5,-15,-1,16878
-1.82072,1.2472,-1.34665,13.5,-128.188,168.688,1.58838,-0.00146484,0.100098,-6,-3,-6,-31,0,8,2,-2,16894
-1.68165,1.30916,-1.2247,62.875,-130.188,161.063,1.40625,0.0849609,0.0917969,0,1,2,14,-1,-5,-13,1,16911
-1.48777,1.36003,-1.05657,86.875,-113.188,141.813,0.955566,0.325684,0.0844727,-11,-6,-11,3,-5,-3,3,-3,16929
-1.48777,1.36003,-1.05657,86.875,-113.188,141.813,0.955566,0.325684,0.0844727,0,-3,-6,-5,4,-3,-7,1,16945
-1.22003,1.39552,-0.813752,83.5,-105.813,119,0.539551,0.517578,0.140137,11,9,8,-3,-12,1,3,-4,16962
-0.861288,1.41341,-0.47604,68.25,-98.875,88.125,0.272949,0.586426,0.154297,4,-1,3,-7,-13,-5,5,-1,16980
-0.518927,1.40707,-0.150515,53,-85.375,62.1875,0.0551758,0.609863,0.340332,7,-2,-9,-7,-1,-11,12,-21,16997
-0.271094,1.38716,0.0810916,45.125,-58.8125,31.4375,-0.102051,0.771973,0.567383,1,-1,9,0,10,8,-3,3,17014
-0.109596,1.36855,0.230993,26.5625,-27.8125,2.8125,-0.259277,1.00195,0.623535,-4,0,18,-4,8,7,1,3,17031
-0.0284426,1.36005,0.311298,-10.75,10.375,-38.625,-0.154785,1.24023,0.600098,-33,-4,-6,-15,-37,-3,-63,19,17049
-0.0284426,1.36005,0.311298,-10.75,10.375,-38.625,-0.154785,1.24023,0.600098,28,-9,-29,9,12,-6,51,-28,17065
-0.197374,1.3736,0.155351,-51.25,57.4375,-107.563,0.217773,1.29785,0.493652,-19,8,34,55,-8,-7,-70,27,17082
-0.508325,1.38558,-0.12358,-109.813,92.875,-148.813,0.404297,1.08643,0.513184,7,3,3,-42,21,14,54,-9,17099
-0.932486,1.37313,-0.505557,-143.188,118.063,-190.375,0.67334,0.779297,0.338379,18,0,19,-12,-1,0,7,-10,17116
-1.884,1.07409,-1.30145,-140.938,230.688,-282.75,3.66797,-0.867676,0.135254,29,0,25,1,13,1,10,0,17181
-1.99078,0.95416,-1.38439,-103.875,240.375,-275.75,3.87061,-0.861328,-0.346191,4,-3,-8,22,-1,-3,-5,9,17198
-2.0585,0.846306,-1.43584,-78.4375,218.188,-237.25,3.31787,-0.678711,-0.352051,9,-3,0,8,-6,-3,11,-6,17216
-2.09473,0.758131,-1.46013,-53.5,164.875,-198.375,2.56055,-0.713379,-0.442871,-21,-2,-2,12,0,3,-2,3,17233
-2.13192,0.684875,-1.46665,-94.25,120.625,-172.313,1.87354,-0.190918,-0.394531,-3,3,-2,22,6,3,-14,0,17250
-2.19029,0.626907,-1.4667,-167.125,92.125,-138,1.43896,-0.397461,-0.458984,2,1,3,6,-4,-3,-9,1,17267
-2.19029,0.626907,-1.4667,-167.125,92.125,-138,1.43896,-0.397461,-0.458984,8,-2,-6,-5,2,3,1,2,17285
-2.24391,0.572529,-1.47065,-147.813,88.375,-101.063,0.999023,-0.644043,-0.503906,-6,-1,2,-6,-10,0,-3,2,17301
-2.28264,0.529263,-1.47381,-106.313,73.0625,-75.875,0.708496,-0.760254,-0.614746,0,-2,-2,1,-3,0,4,-5,17319
-2.3026,0.489467,-1.47545,-60.625,45.5,-41.1875,0.325195,-0.804688,-0.601563,-4,-1,-2,-3,2,-3,0,-3,17336
-2.3101,0.476486,-1.47751,-21.3125,9.5625,-0.3125,-0.0424805,-0.789063,-0.655273,7,0,4,9,-2,-1,-4,-1,17353
-2.3065,0.48036,-1.47782,11.9375,-17.75,19.625,-0.30957,-0.776855,-0.732422,-1,1,-4,-15,-1,-4,-3,-8,17370
-2.29347,0.486854,-1.47397,35.75,-32.9375,19,-0.414551,-0.94043,-0.911133,-11,-1,1,5,4,-2,-20,18,17387
-2.29347,0.486854,-1.47397,35.75,-32.9375,19,-0.414551,-0.94043,-0.911133,15,-2,-3,-6,2,5,21,-11,17404
-2.28056,0.492281,-1.47034,41.25,-46.4375,32.375,-0.218262,-1.09766,-1.13281,-9,0,-3,-7,0,-4,-9,-1,17421
-2.27077,0.497748,-1.47725,57.25,-45.25,63.3125,0.169434,-0.966797,-1.22412,-6,-3,-3,-5,1,-3,10,-5,17439
-2.22117,0.630439,-1.5128,61.75,-69.125,135.063,1.4668,-0.722168,-0.536133,1,-6,-27,-24,-19,-9,10,-9,17509
-2.18864,0.695973,-1.50992,88.3125,-116.375,147.313,2.70117,-0.745117,-0.282715,83,7,31,-2,3,-8,47,-38,17527
-2.13901,0.8011,-1.50742,137.188,-173.063,247,3.01904,-1.26172,0.0791016,29,11,48,52,4,-2,-22,1,17544
-2.03967,0.915258,-1.47773,220.438,-210.875,256.75,3.56885,-1.32813,0.0957031,16,0,-9,-7,-3,-8,16,-8,17561
-1.96484,1.01662,-1.44445,135.75,-170.813,241.188,2.93848,-0.700195,0.235352,7,-4,9,20,9,-2,6,2,17578
-1.90431,1.10358,-1.40659,78.4375,-138.188,214.188,2.1377,-0.260742,0.166992,-6,1,13,7,0,4,-8,12,17594
-1.846,1.17484,-1.35068,21.5,-125.313,174.5,2.14453,-0.313965,0.0844727,-11,-4,-6,-8,-2,1,-4,3,17611
-1.846,1.17484,-1.35068,21.5,-125.313,174.5,2.14453,-0.313965,0.0844727,-3,-4,-5,0,1,-2,4,0,17627
-1.77626,1.24081,-1.2793,8.4375,-115.688,166.375,1.95313,-0.126465,0.101563,-2,0,-3,-11,-1,3,-8,0,17644
-1.66062,1.30699,-1.16508,18.3125,-122.438,172.938,1.69824,0.0126953,0.0996094,-4,-1,6,4,4,1,-8,5,17661
-1.45225,1.36635,-0.970686,54.5,-124.375,170.125,1.15576,0.283203,0.112305,3,-2,-2,6,-4,-1,1,-9,17678
-1.45225,1.36635,-0.970686,54.5,-124.375,170.125,1.15576,0.283203,0.112305,-1,1,-4,-2,4,-2,4,-4,17695
-0.738211,1.41256,-0.300139,71.4375,-116.813,107.625,0.467773,0.562012,0.0517578,-9,1,-12,-5,0,1,-6,1,17712
-0.738211,1.41256,-0.300139,71.4375,-116.813,107.625,0.467773,0.562012,0.0517578,5,2,-5,-5,-5,1,5,-3,17729
-0.365104,1.40238,0.055826,55.375,-98.1875,82.3125,0.209473,0.661621,0.156738,6,-1,3,-1,2,-4,9,-4,17747
-0.0939551,1.37499,0.305918,61.1875,-77.1875,55.5,-0.0102539,0.786621,0.407227,11,-2,-5,-8,-5,-2,6,-8,17764
-0.0122587,1.33157,0.344513,-50.9375,43.25,-139.625,0.074707,1.19336,0.556152,-8,4,2,-4,1,-1,4,7,17832
-0.0122587,1.33157,0.344513,-50.9375,43.25,-139.625,0.074707,1.19336,0.556152,-5,0,6,32,3,-8,-33,9,17850
-0.311945,1.34745,0.0746653,-111,82.25,-187.438,0.474609,1.22656,0.433594,4,0,6,12,16,2,-4,3,17868
-0.745503,1.34119,-0.313132,-161.688,115.188,-234.75,1.1665,0.849609,0.115723,-10,-9,-20,48,-2,-7,-4,-5,17885
-1.25522,1.2673,-0.779628,-168.813,183.313,-362.375,3.88574,0.148926,-0.39502,-42,-4,-30,-78,-4,0,-40,2,17902
-1.59966,1.16029,-1.08828,-156.813,262.125,-344.938,3.62842,-0.793945,-0.223633,16,-1,16,34,-6,-3,16,-7,17919
-1.79963,1.0438,-1.24878,-161.938,249.125,-303.938,3.66943,-0.907227,-0.00830078,-4,-2,9,32,12,-3,-22,30,17936
-1.89561,0.923262,-1.32394,-95.1875,209.438,-299.938,3.42529,-0.803223,-0.283691,28,-5,13,9,-9,7,9,4,17953
-1.89561,0.923262,-1.32394,-95.1875,209.438,-299.938,3.42529,-0.803223,-0.283691,3,-2,5,2,-22,5,-15,11,17970
-1.94079,0.825827,-1.35832,-53.875,154.625,-240.75,3.0791,-0.462891,-0.259766,-29,-3,-2,-4,6,0,-14,5,17986
-1.97584,0.748601,-1.37615,-64.4375,116.875,-191.5,2.46191,-0.185059,-0.292969,6,3,8,4,42,1,9,-6,18004
-2.03853,0.684559,-1.38055,-171.563,86.5,-162,1.79736,-0.000976563,-0.349121,7,-4,3,-20,-10,0,3,0,18021
-2.11749,0.629991,-1.39035,-205.375,81.4375,-107.188,1.23779,-0.366699,-0.54541,8,0,5,8,-19,3,-15,3,18039
-2.18155,0.581407,-1.40198,-164.688,88.5,-85.3125,0.813965,-0.670898,-0.463379,-1,-2,-5,11,18,7,12,-7,18056
-2.22569,0.548127,-1.4159,-104.25,73.8125,-44.5625,0.544922,-0.688965,-0.577148,-13,-2,-4,9,3,-4,-16,-4,18073
-2.22569,0.548127,-1.4159,-104.25,73.8125,-44.5625,0.544922,-0.688965,-0.577148,-6,0,-3,11,6,-5,-13,0,18090
-2.23907,0.528339,-1.43279,25.4375,-36.3125,17.625,-0.21875,-0.812012,-0.976563,2,-2,-6,-12,-10,-5,14,-12,18161
-2.23373,0.527773,-1.43723,37.5625,-34.875,46.6875,0.121582,-0.995117,-1.11133,6,-3,-5,-29,-3,1,15,-7,18178
-2.22973,0.525992,-1.45721,57.9375,-17.6875,86.375,0.55127,-0.971191,-1.09961,-16,-1,-12,-2,6,-7,-6,5,18195
-2.22264,0.560012,-1.47826,53.6875,-30.9375,122.5,0.606934,-0.773926,-0.768555,-11,-5,-2,-9,-20,8,-11,12,18212
-2.22264,0.560012,-1.47826,53.6875,-30.9375,122.5,0.606934,-0.773926,-0.768555,26,1,-4,-26,-4,2,29,-18,18230
-2.21845,0.599717,-1.50043,46.125,-39.25,140.625,0.923828,-0.754883,-0.504883,2,-3,-1,-4,-14,-3,8,-6,18247
-2.21872,0.660228,-1.51266,20,-82.375,155.5,1.77441,-0.98291,-0.369141,8,-1,-18,-55,-1,-2,9,-15,18264
-2.20789,0.745035,-1.51368,32.875,-144,195.813,2.88086,-0.822266,-0.158203,-10,-1,-4,22,2,1,-8,3,18281
-2.16974,0.859189,-1.50841,98.5625,-198.125,260.438,3.36426,-1.11279,0.246094,33,-1,4,3,-6,-6,15,-8,18299
-2.08892,0.974769,-1.4886,186.25,-205.125,263.063,3.13037,-1.15527,0.413086,-13,-2,-2,21,-6,0,-4,10,18316
-2.08892,0.974769,-1.4886,186.25,-205.125,263.063,3.13037,-1.15527,0.413086,-13,-2,-2,21,-6,0,-4,10,18333
-2.08892,0.974769,-1.4886,186.25,-205.125,263.063,3.13037,-1.15527,0.413086,30,1,7,10,6,-1,31,-14,18350
-1.97224,1.15945,-1.44945,83.875,-126.875,216.25,1.84961,-0.268066,0.251465,-9,-1,-2,-5,4,-7,-7,6,18367
-1.91796,1.23518,-1.40539,37.8125,-122.25,185.5,1.99463,-0.130859,0.0380859,-9,1,1,-6,-5,-4,-1,1,18383
-1.86159,1.3035,-1.33968,-18.3125,-114.563,167.438,1.83594,0.0571289,0.0166016,-1,0,4,-2,6,6,1,-4,18401
-1.74666,1.36453,-1.20867,-35.9375,-126.5,153.375,1.36865,0.043457,0.0229492,-3,0,-2,11,12,4,-2,-5,18419
-0.537018,1.41733,-0.028627,76.375,-143.563,85.25,0.356445,0.525879,0.210449,7,-3,1,-2,-4,-6,-5,3,18478
-0.280821,1.39003,0.204453,73,-108.688,58.5,0.177734,0.745117,0.360352,-12,-4,1,4,-6,2,7,2,18495
-0.0601187,1.35728,0.403751,59.5,-72.8125,35.6875,-0.131836,0.871094,0.592773,23,0,7,4,2,-3,-2,-6,18513
-0.0601187,1.35728,0.403751,59.5,-72.8125,35.6875,-0.131836,0.871094,0.592773,-7,0,-8,-7,-5,-1,1,-10,18529
0.0731318,1.32751,0.517656,47.0625,-37,3.875,-0.291504,1.05811,0.756348,-1,-4,-1,1,-2,0,-7,1,18546
0.118914,1.31217,0.548536,27.4375,4.625,-50,-0.397949,1.1416,0.791992,2,-4,-12,-14,1,-7,3,-6,18563
0.00703403,1.32515,0.431956,-1.5625,42.125,-103.188,-0.335449,1.06152,0.700195,27,4,7,-12,9,8,-2,6,18580
-0.197713,1.34478,0.235912,-45.1875,74.875,-145.375,0.097168,1.19727,0.401367,2,-4,1,-10,-1,-1,0,0,18597
-0.197713,1.34478,0.235912,-45.1875,74.875,-145.375,0.097168,1.19727,0.401367,-10,-3,4,-4,2,11,3,1,18614
-1.00845,1.33249,-0.497713,-186.813,140.438,-240.375,2.36914,0.441406,-0.050293,3,3,-15,-23,-26,-7,14,-8,18632
-1.00845,1.33249,-0.497713,-186.813,140.438,-240.375,2.36914,0.441406,-0.050293,-57,-11,-13,0,-15,-4,-61,18,18648
-1.43823,1.25572,-0.864423,-219.563,195.563,-301.25,3.30371,-0.646973,-0.252441,-32,6,0,43,8,0,-36,10,18666
-1.70259,1.15062,-1.08777,-159.375,230.125,-299.438,3.80811,-0.930664,-0.243164,48,-4,8,15,3,0,47,-7,18683
-1.85189,1.04479,-1.22094,-87.75,232.5,-261,4.0835,-1.10498,-0.647949,24,-6,6,-1,5,-4,21,-15,18700
-1.93358,0.950748,-1.29647,-51.875,196.563,-218.188,3.37939,-0.734863,-0.519531,-13,-2,-5,9,-7,0,-5,18,18717
-1.93358,0.950748,-1.29647,-51.875,196.563,-218.188,3.37939,-0.734863,-0.519531,-16,2,-2,8,-4,0,-11,12,18734
-2.09466,0.749536,-1.35157,-192.375,87.25,-128.125,1.41992,-0.224121,-0.459473,14,2,3,-3,-5,4,7,8,18794
-2.17412,0.692722,-1.36517,-201.188,98,-101.688,1.17334,-0.664551,-0.516113,-6,0,-3,2,-3,-2,-3,-7,18811
-2.2288,0.645237,-1.37952,-131.875,93.875,-73.25,0.852051,-0.758301,-0.529297,-9,-1,-5,-3,1,-3,-1,5,18828
-2.25183,0.598756,-1.38986,-50.375,59.4375,-34.5,0.601074,-0.711914,-0.530762,-6,-3,-2,2,-5,-4,-4,-17,18844
-2.24928,0.577345,-1.39497,14.25,21.125,-4.9375,0.219238,-0.660645,-0.501465,0,2,5,16,8,-4,-9,3,18861
-2.23623,0.578048,-1.39469,41.8125,-19.1875,17.875,-0.0761719,-0.531738,-0.524902,-7,0,-2,-8,-7,-5,11,-2,18878
-2.23062,0.584997,-1.39099,24.1875,-40.6875,22.375,-0.192871,-0.54248,-0.724121,5,0,-3,-3,-6,-3,1,-13,18894
-2.23062,0.584997,-1.39099,24.1875,-40.6875,22.375,-0.192871,-0.54248,-0.724121,-10,-1,-1,2,-1,-4,-17,6,18911
-2.22798,0.589368,-1.38843,15.4375,-39.0625,27.75,-0.238281,-0.835938,-0.905273,6,-1,-2,-6,-9,-2,14,-4,18928
-2.22608,0.591276,-1.39896,36.9375,-19.75,50.1875,-0.194824,-1.01025,-1.0874,9,0,0,-13,1,2,8,4,18945
-2.23059,0.600097,-1.42309,48.25,-13.9375,86.6875,0.0449219,-0.757813,-1.06055,-3,-4,7,18,6,-4,-26,-2,18962
-2.22272,0.634724,-1.43976,54.875,-40.9375,111.75,0.28418,-0.592285,-0.870117,10,-2,7,-20,6,4,14,2,18979
-2.21567,0.672657,-1.45642,49.5625,-45.6875,122.688,0.600586,-0.618164,-0.483398,5,-2,14,23,4,6,8,3,18996
-2.21567,0.672657,-1.45642,49.5625,-45.6875,122.688,0.600586,-0.618164,-0.483398,-9,-8,-15,-12,-25,-14,-21,-1,19013
-2.19593,0.714475,-1.46944,80.3125,-48.1875,113,1.6792,-0.973145,-0.448242,2,-4,-21,-46,0,-7,21,-16,19029
-2.16202,0.785754,-1.47314,104.375,-110.313,172.125,2.58057,-0.979004,-0.242676,-29,-2,-4,7,4,-7,-39,16,19047
-1.97503,1.0954,-1.41849,82.75,-134.563,232.25,2.61914,-0.631836,0.0927734,2,1,2,2,9,1,-16,18,19100
-1.92915,1.17639,-1.38565,46.0625,-123.375,200.5,1.89795,-0.523438,0.22168,-5,-3,-6,-18,-4,6,6,4,19118
-1.85962,1.24558,-1.32559,37.8125,-120.313,168.563,1.92773,-0.389648,-0.0209961,8,-1,-2,-21,-8,-2,11,0,19135
-1.85962,1.24558,-1.32559,37.8125,-120.313,168.563,1.92773,-0.389648,-0.0209961,-28,-2,-4,8,1,-6,-23,10,19153
-1.76806,1.30893,-1.23785,21.6875,-114.188,158.5,1.83301,-0.104492,-0.00732422,12,-1,0,3,2,2,4,-8,19170
-1.60404,1.3649,-1.08483,42.875,-118.438,151.125,1.2583,0.00683594,0.0805664,-2,-5,-2,1,-2,-1,1,-6,19186
-1.31605,1.40401,-0.818837,76,-126.625,124.438,0.97998,0.213379,0.0483398,2,1,4,0,1,-3,-3,-1,19203
-0.941529,1.41968,-0.468131,80.625,-124.125,99.875,0.688965,0.517578,0.00537109,5,4,-9,-9,-3,1,1,-4,19220
-0.58795,1.41054,-0.139196,80.25,-117,77.9375,0.382813,0.658691,0.0341797,3,-4,-3,-8,3,5,4,-6,19238
-0.58795,1.41054,-0.139196,80.25,-117,77.9375,0.382813,0.658691,0.0341797,-4,-3,0,-8,0,1,1,-1,19255
-0.354854,1.38644,0.0751476,60.75,-105.75,50.625,0.0844727,0.711914,0.180176,10,-3,-5,-3,0,-6,8,-10,19272
-0.166904,1.35471,0.246859,44.25,-87.75,18.75,-0.109375,0.773926,0.383301,-2,-1,-5,-9,-11,-6,2,-4,19289
-0.0665939,1.32353,0.331478,35.5,-61,-19.6875,-0.181641,0.958008,0.557617,6,-3,-5,-5,-9,-3,6,-7,19307
-0.0201027,1.2977,0.358191,38.8125,-26.125,-56.5625,-0.208496,1.09814,0.76416,-32,0,7,14,4,2,-25,16,19324
-0.11133,1.29165,0.250877,29.8125,0.8125,-101.25,-0.0151367,0.998047,0.782715,-12,-2,-10,28,6,-5,5,4,19342
-0.29116,1.29309,0.0757156,-38.25,44.5625,-151.375,0.337402,1.05908,0.662109,0,-11,-1,-28,-6,-7,15,-26,19359
-1.65438,1.1211,-1.0666,-207.688,247.313,-253.938,3.42188,-1.07227,0.0737305,6,-1,13,26,1,0,-20,9,19443
-1.82124,1.02802,-1.21352,-107.313,242.063,-228.938,3.45605,-0.765137,-0.28125,5,-6,2,4,3,-2,0,0,19460
-1.92566,0.939079,-1.30812,-73.5625,219.375,-198.75,3.24023,-0.646973,-0.492676,-7,-1,-1,3,-7,1,-10,4,19476
-1.97742,0.863609,-1.35705,-37.875,161.25,-168.375,2.89209,-0.504883,-0.774414,-2,-1,1,2,2,0,-14,0,19494
-1.97742,0.863609,-1.35705,-37.875,161.25,-168.375,2.89209,-0.504883,-0.774414,-11,-2,4,-2,3,5,5,7,19511
-2.01003,0.808245,-1.37417,-57.3125,95.0625,-131.25,2.1626,-0.290039,-0.762695,1,1,1,-10,4,-2,4,-1,19528
-2.06336,0.773937,-1.37747,-146.188,50.0625,-84.375,1.53369,-0.0307617,-0.800293,3,-1,0,6,11,2,0,0,19545
-2.14013,0.742199,-1.38456,-199.375,41.75,-55,1.09619,-0.381836,-0.875488,2,-2,1,-5,-3,-1,-1,1,19562
-2.21826,0.712479,-1.39634,-199.063,55,-38.1875,0.625,-0.861816,-0.874512,-3,-2,-5,3,-2,0,5,4,19579
-2.21826,0.712479,-1.39634,-199.063,55,-38.1875,0.625,-0.861816,-0.874512,-1,-2,-2,9,-3,7,-8,-3,19596
-2.31325,0.65293,-1.41431,-78.5625,46.75,-18.0625,0.0932617,-0.840332,-0.666504,-2,-2,-1,-4,-1,-1,2,10,19613
-2.31325,0.65293,-1.41431,-78.5625,46.75,-18.0625,0.0932617,-0.840332,-0.666504,4,-2,-2,-1,-6,-5,-1,6,19631
-2.30463,0.631348,-1.41484,22.875,17.75,-14.375,-0.148438,-0.885742,-0.731934,-5,2,-1,-5,-7,0,-3,-5,19648
-2.27836,0.630594,-1.40938,70.8125,-27.8125,7.1875,-0.342285,-0.776855,-0.771973,-2,1,1,-3,3,-3,-2,-3,19666
-2.25375,0.646398,-1.40032,64.4375,-66.0625,35.75,-0.378418,-0.726563,-0.807617,4,0,0,-4,2,3,-4,7,19683
-2.25375,0.646398,-1.40032,64.4375,-66.0625,35.75,-0.378418,-0.726563,-0.807617,4,0,0,-4,2,3,-4,7,19699
-2.17973,0.771824,-1.4269,73.1875,-57.875,85.0625,1.46875,-1.03418,-0.551758,-34,-4,-13,-22,-18,-7,4,-1,19783
-2.13439,0.836961,-1.42814,132.563,-100.938,157,2.60986,-1.20508,-0.41748,5,-3,-7,-18,-1,9,25,-5,19800
-2.0448,0.935331,-1.41512,227.688,-160.688,233.313,3.39893,-1.05762,-0.19043,-6,-2,4,8,9,4,5,7,19817
-2.0448,0.935331,-1.41512,227.688,-160.688,233.313,3.39893,-1.05762,-0.19043,26,-4,-7,2,-7,-6,2,-11,19834
-1.93596,1.03832,-1.37827,223.875,-173.75,246.063,3.36572,-0.683594,-0.0161133,42,19,19,17,-5,-6,-15,5,19851
-1.84472,1.13683,-1.33103,141.188,-148.563,248.5,2.41113,-0.541504,0.100098,5,1,-1,-7,3,1,32,-12,19869
-1.76181,1.22056,-1.26252,56.0625,-128.313,215.875,1.86523,-0.423828,0.19043,3,-1,-4,0,7,-4,9,-8,19886
-1.65057,1.28572,-1.15652,30.25,-119.25,171.25,2.12598,-0.450195,-0.00585938,5,-3,-1,-10,-20,-3,10,-7,19904
-1.50217,1.3378,-1.00849,14.9375,-109.188,149,2.00098,-0.333984,0.050293,-13,-2,0,5,-1,0,-4,-2,19921
-1.25786,1.37764,-0.775504,47.5625,-117.625,136.875,1.49414,-0.291992,0.105957,-4,-2,-1,-1,6,-6,2,7,19939
-1.25786,1.37764,-0.775504,47.5625,-117.625,136.875,1.49414,-0.291992,0.105957,-2,-2,1,-4,12,9,-4,8,19956
-0.630032,1.38633,-0.196217,83.125,-103.75,81.125,0.583008,0.401367,0.0878906,-3,-3,-2,-10,1,5,-6,5,19973
-0.630032,1.38633,-0.196217,83.125,-103.75,81.125,0.583008,0.401367,0.0878906,4,-3,-5,-8,4,3,9,-10,19989
-0.369088,1.36901,0.044167,63.75,-92.4375,55.1875,0.373047,0.586426,0.132813,1,3,6,2,-2,-1,-2,1,20006
-0.183381,1.34516,0.218632,32.6875,-77.6875,36.375,0.167969,0.708984,0.205566,13,-2,-2,0,-6,-3,7,-12,20024
-0.0491216,1.31972,0.343613,22.0625,-56.1875,17.4375,-0.0913086,0.865723,0.412109,-5,4,5,1,-1,-4,-16,4,20041
0.0368782,1.2746,0.414676,-27.8125,23.75,-97.875,0.00830078,1.11523,0.689941,2,-1,-1,-10,-6,-12,-16,6,20115
-0.133889,1.28701,0.261515,-74.75,52.9375,-142.688,0.224121,1.1665,0.58252,-25,1,-7,-2,5,-3,-19,12,20133
-0.42023,1.29862,0.00797573,-127.75,93.5,-203.75,0.578613,1.32568,0.358398,1,-7,-7,-2,-1,1,-13,2,20150
-0.86723,1.28131,-0.381266,-208.5,146.375,-275.125,2.0791,0.807617,-0.0673828,-6,-5,-9,-27,-5,-7,22,-15,20167
-1.32763,1.21753,-0.762417,-281.25,223.875,-317.563,3.23779,-0.632813,-0.296875,-25,-2,-6,-9,-2,-5,-12,-4,20184
-1.64622,1.12438,-1.02825,-210.375,273.188,-288.75,3.84619,-1.08008,0.0693359,12,-3,5,25,-2,-3,5,0,20201
-1.81047,1.02645,-1.19049,-61.125,262.438,-242.063,4.20166,-1.26367,-0.397461,43,-13,11,25,12,0,33,-16,20218
-1.89776,0.942174,-1.29395,-2.8125,225.188,-185.625,3.28418,-1.06055,-0.34375,-14,-4,-5,10,-4,6,-13,12,20235
-1.89776,0.942174,-1.29395,-2.8125,225.188,-185.625,3.28418,-1.06055,-0.34375,-14,2,-1,-3,0,-5,-15,5,20252
-1.93308,0.875633,-1.35353,33.25,163,-144.375,2.46777,-0.697266,-0.60791,-7,2,-1,-3,1,1,2,4,20270
-1.96867,0.819981,-1.38251,-39.5625,110.313,-127.688,1.89551,-0.158203,-0.48291,-13,-1,-3,-6,-3,4,-13,8,20287
-2.05869,0.772011,-1.40328,-215.375,96.625,-106,1.46973,-0.185059,-0.640625,-1,-1,-3,4,4,4,-2,0,20305
-2.15696,0.726439,-1.42621,-233.688,92.9375,-68.8125,1.14111,-0.53418,-0.66748,1,-1,0,-8,-5,-6,6,-5,20322
-2.23175,0.688031,-1.44402,-180.438,81.5625,-48.3125,0.79834,-0.89209,-0.765137,-3,-3,-1,0,5,-1,-2,2,20340
-2.23175,0.688031,-1.44402,-180.438,81.5625,-48.3125,0.79834,-0.89209,-0.765137,-3,-3,-1,0,5,-1,-2,2,20357
-2.28013,0.664651,-1.4567,-115.938,53.125,-20,0.395508,-0.90332,-0.744629,-1,-4,-3,10,4,2,12,-8,20375
-2.27443,0.658605,-1.48014,57.875,-51.125,42,-0.369141,-0.705078,-1.01709,-3,0,-8,-8,-6,2,2,-1,20453
-2.26294,0.674239,-1.48006,49.875,-69.0625,60.875,-0.169434,-0.778809,-1.03955,-5,0,2,8,1,-5,-9,3,20471
-2.2607,0.693728,-1.48632,38.4375,-75.75,86.6875,0.188477,-0.599121,-0.993652,10,8,-5,-11,-7,-7,4,2,20487
-2.25486,0.716411,-1.4951,48.125,-73.4375,99.6875,0.317871,-0.541016,-0.795898,-45,-3,3,28,2,4,-44,21,20505
-2.23498,0.755776,-1.49376,52.875,-85.625,104.063,0.619141,-1.01953,-0.679688,10,-4,14,17,-1,3,-22,1,20522
-2.19896,0.807245,-1.48082,77,-109.875,102.188,2.16602,-1.39502,-0.414551,-12,-1,-10,-22,-11,-3,-9,-3,20539
-2.19896,0.807245,-1.48082,77,-109.875,102.188,2.16602,-1.39502,-0.414551,27,-7,-38,-76,5,12,82,-36,20557
-2.1262,0.895626,-1.45688,156.938,-179,184.75,3.07178,-1.17529,-0.34082,39,1,5,-9,-4,-1,28,-12,20574
-1.99069,1.01111,-1.39877,252.375,-240.563,247.688,3.48975,-1.00586,0.148926,27,1,8,2,-8,0,20,-9,20591
-1.86383,1.11173,-1.32984,191.125,-191.188,236.125,2.9292,-0.941406,0.0351563,16,5,8,17,-1,-6,-17,4,20608
-1.79331,1.19276,-1.27773,65.5,-117.938,209.375,2.3877,-0.269043,0.297363,-13,-3,-3,-3,-5,0,-5,-3,20625
-1.79331,1.19276,-1.27773,65.5,-117.938,209.375,2.3877,-0.269043,0.297363,4,-6,-5,-9,5,5,14,-6,20641
-1.57978,1.31402,-1.09011,48.5,-100.625,152.438,1.99512,-0.521973,0.0439453,-8,-3,0,-7,1,-1,-5,2,20658
-1.57978,1.31402,-1.09011,48.5,-100.625,152.438,1.99512,-0.521973,0.0439453,-15,-2,-4,2,4,11,-10,9,20675
-1.40305,1.36071,-0.928547,56.125,-96.125,141.125,1.69629,-0.133789,0.0864258,8,-1,0,-3,-8,0,-4,0,20692
-1.13516,1.39576,-0.680695,69.5625,-96.25,136.063,1.15771,0.165039,0.13916,1,-3,1,0,11,8,4,0,20709
-0.114666,1.38662,0.293057,39.6875,-77.4375,72.625,0.233398,0.708496,0.259277,-3,-1,-5,-1,-3,-2,4,-10,20768
0.0752237,1.35538,0.476615,17.1875,-70.5,45.375,0.0834961,0.851563,0.304688,-5,-1,1,3,-3,3,-8,5,20785
0.170588,1.32096,0.571644,-6.3125,-61.5625,9.9375,-0.0732422,0.959473,0.433594,-4,0,0,3,4,6,3,-3,20802
0.208847,1.2934,0.610859,-17.75,-36.125,-34.0625,-0.196289,1.17529,0.600098,-9,-6,-3,-4,0,0,-9,1,20820
0.198294,1.28311,0.601904,-26,5.125,-79.5,-0.307617,1.18848,0.607422,12,6,10,-3,2,-3,-9,-2,20835
0.0673898,1.29593,0.48163,-47.9375,32.1875,-114.688,-0.0595703,0.896484,0.547852,-8,-15,-13,-12,2,0,-25,4,20853
0.0673898,1.29593,0.48163,-47.9375,32.1875,-114.688,-0.0595703,0.896484,0.547852,5,7,10,29,1,-3,-38,19,20869
-0.152603,1.31399,0.2915,-107.875,65.6875,-152.625,0.260254,0.720703,0.429688,-15,-9,-9,-28,0,1,50,-14,20886
-0.462798,1.32925,0.0236299,-147.125,102.938,-177.188,0.531738,0.638672,0.208496,15,-3,-15,-13,16,1,12,-4,20903
-0.90858,1.32067,-0.372939,-174.75,155.813,-228.188,2.52148,0.552734,-0.229004,11,9,-10,-7,2,-5,24,-20,20919
-1.40744,1.25639,-0.814396,-212.938,249,-306,3.27734,-0.364746,-0.342285,-17,-1,4,33,15,2,-36,4,20936
-1.40744,1.25639,-0.814396,-212.938,249,-306,3.27734,-0.364746,-0.342285,-30,-6,-19,-14,-14,-9,11,-13,20954
-1.73324,1.15497,-1.08447,-209.563,276.625,-287.75,4.00781,-0.935547,-0.155762,42,-7,4,-5,-10,3,31,12,20970
-1.88466,1.0437,-1.22589,-72.125,254,-266.438,4.29492,-1.25537,-0.571289,27,0,6,-10,-11,0,2,-15,20988
-1.95778,0.945004,-1.30255,-25.25,209.625,-224.188,3.4248,-0.808105,-0.696289,5,2,4,-5,-5,0,1,2,21006
-1.97278,0.862817,-1.32792,14.3125,132.125,-200.25,2.50488,-0.651855,-0.849609,-9,3,0,-1,-2,-6,-1,0,21023
-2.24785,0.661867,-1.33968,-180.625,75.8125,-58.375,0.535645,-1.00195,-0.513184,-2,-1,2,2,-7,3,-2,2,21098
-2.27565,0.624689,-1.3422,-88.1875,46.3125,-31.6875,0.260254,-0.854004,-0.42627,-2,-1,2,2,-7,3,-2,2,21114
-2.27565,0.624689,-1.3422,-88.1875,46.3125,-31.6875,0.260254,-0.854004,-0.42627,2,0,-2,-5,0,-2,-4,-8,21131
-2.27093,0.605511,-1.34215,6,13.4375,-7.875,0.145996,-0.702148,-0.419922,-2,0,-3,-2,-1,-1,-2,-8,21148
-2.25475,0.600901,-1.33914,40.8125,-14.125,6.4375,-0.0327148,-0.57373,-0.453613,-9,-1,-1,1,4,2,-8,1,21166
-2.25475,0.600901,-1.33914,40.8125,-14.125,6.4375,-0.0327148,-0.57373,-0.453613,-9,-1,-1,1,4,2,-8,1,21183
-2.24007,0.602462,-1.33272,36.25,-32.5625,11,-0.203125,-0.664551,-0.630371,-9,-1,-1,1,4,2,-8,1,21200
-2.23019,0.601772,-1.33187,35.8125,-25.0625,18.75,-0.317871,-0.911133,-0.896484,-6,-2,-3,-1,-1,2,4,4,21218
-2.24496,0.628151,-1.37964,29.875,-5.6875,106.438,-0.0234375,-0.776367,-1.03711,-7,-3,-2,-5,0,0,-7,0,21235
-2.24496,0.628151,-1.37964,29.875,-5.6875,106.438,-0.0234375,-0.776367,-1.03711,2,-3,-2,-18,-11,-5,8,-8,21252
-2.26421,0.721528,-1.42904,11.0625,-61.875,149.125,0.833496,-0.574219,-0.481445,1,-4,4,16,7,-12,-25,-6,21269
-2.26421,0.721528,-1.42904,11.0625,-61.875,149.125,0.833496,-0.574219,-0.481445,-17,-3,-14,-41,-26,-9,3,-6,21286
-2.25763,0.768334,-1.44605,51.8125,-57.875,126.625,1.78809,-0.797363,-0.610352,-24,-5,-7,15,-8,-6,-27,2,21304
-2.23367,0.84527,-1.45296,83.1875,-127.063,180.438,2.60889,-0.888184,-0.458008,39,1,-3,19,11,-7,27,-27,21321
-2.17789,0.95606,-1.44406,139.75,-201.25,246.188,3.32129,-1.21729,-0.214844,4,-2,4,2,-3,6,-8,1,21338
-2.08299,1.07832,-1.4152,201.438,-223.063,274.063,3.31982,-1.16357,-0.115234,20,0,-3,-12,5,2,39,-18,21355
-1.75827,1.32514,-1.18713,74.9375,-133.813,152.25,2.19629,-0.352051,0.000976563,2,-1,3,6,-6,0,-8,1,21434
-1.17213,1.41708,-0.654497,103,-138.125,138.25,1.15527,0.0673828,0.146973,-13,-6,-5,3,18,3,-6,1,21452
-1.17213,1.41708,-0.654497,103,-138.125,138.25,1.15527,0.0673828,0.146973,5,0,2,8,3,-7,3,-3,21470
-0.727597,1.42345,-0.247779,120.688,-128.313,109.75,0.969238,0.415039,0.103516,2,0,1,4,2,4,6,-2,21486
-0.362255,1.40805,0.0862123,99.25,-108.375,93.25,0.647949,0.662109,0.202637,-1,-2,1,-4,5,4,-7,0,21503
-0.0485771,1.37938,0.375706,72.1875,-81.5625,77.1875,0.345215,0.737305,0.329102,6,-1,1,-9,-11,-5,8,-1,21521
0.134216,1.34528,0.542942,44.0625,-56.8125,49.4375,0.0766602,0.802734,0.521484,-3,0,-2,7,0,-11,14,-11,21538
0.246918,1.31467,0.645133,23.6875,-30.9375,17.8125,-0.100586,1.01318,0.634766,12,-1,-3,-2,-5,3,-1,-6,21555
0.292764,1.29537,0.687659,-3.0625,-6.6875,-30.875,-0.219727,1.16113,0.640625,-21,-5,1,-1,-1,2,-10,1,21571
0.292764,1.29537,0.687659,-3.0625,-6.6875,-30.875,-0.219727,1.16113,0.640625,-5,4,3,-4,3,3,-16,11,21589
0.275481,1.28838,0.676403,-37.875,17.5625,-82.9375,-0.177246,1.21094,0.633789,24,7,2,5,-4,-6,4,-9,21606
0.135364,1.31447,0.545986,-45.3125,61.5625,-131.563,0.121582,1.13135,0.552734,-23,-6,2,14,8,1,-41,23,21622
-0.0953843,1.34051,0.330853,-67,78.625,-166.688,0.229004,0.998535,0.368652,2,8,13,14,-7,-11,-47,5,21639
-0.458368,1.35397,-0.00455103,-105.5,99.25,-206.875,0.556641,0.825195,0.185547,10,-7,-17,-22,-2,6,29,-15,21656
-0.458368,1.35397,-0.00455103,-105.5,99.25,-206.875,0.556641,0.825195,0.185547,-20,5,1,7,-4,5,-30,15,21674
-1.44935,1.25123,-0.873179,-244.75,226.063,-321,3.36816,-0.604004,-0.308105,-12,-14,-16,-38,-20,-17,12,-23,21692
-1.93614,0.954585,-1.28666,-27.6875,182.25,-224.875,3.20801,-0.663574,-0.479492,15,-2,9,7,-9,-7,-3,1,21753
-1.93614,0.954585,-1.28666,-27.6875,182.25,-224.875,3.20801,-0.663574,-0.479492,-4,1,-2,2,4,4,5,9,21771
-1.97585,0.868708,-1.32512,-26.875,155.25,-202.438,2.56299,-0.45752,-0.434082,-1,1,-3,2,0,-1,-1,4,21789
-2.0428,0.793671,-1.34736,-144.438,130.063,-176.438,2.01904,-0.00585938,-0.183594,-2,0,2,3,-2,-1,1,1,21806
-2.13469,0.72968,-1.35957,-239.5,112.75,-147.25,1.53613,-0.164551,-0.404297,0,1,0,0,-6,-2,3,-4,21823
-2.22688,0.667487,-1.37465,-237.25,116.875,-108.188,1.0874,-0.628418,-0.390625,11,0,2,5,6,5,10,-3,21839
-2.28688,0.61659,-1.38775,-150.875,106.313,-80.75,0.575195,-0.672363,-0.445801,-7,-2,-3,0,-2,-4,-2,-8,21857
-2.31108,0.572235,-1.39331,-58.1875,55.75,-45.25,0.381348,-0.644531,-0.636719,-5,0,-2,-3,-14,-2,-9,6,21873
-2.31108,0.572235,-1.39331,-58.1875,55.75,-45.25,0.381348,-0.644531,-0.636719,-7,-3,0,-3,-4,-4,-3,-8,21890
-2.30956,0.552695,-1.39434,10.75,11.0625,-12.4375,0.0883789,-0.623047,-0.679199,3,2,-1,0,1,-1,1,5,21907
-2.29446,0.553434,-1.39122,47.625,-31.875,15.5625,-0.117676,-0.666992,-0.794922,3,2,-1,0,1,-1,1,5,21924
-2.2726,0.562139,-1.38549,70,-55.375,27.125,-0.237793,-0.758789,-0.995117,7,1,3,-5,1,1,0,6,21941
-2.24686,0.574304,-1.3734,72.75,-77,29.9375,-0.362793,-0.992676,-1.17578,-6,0,-1,-8,2,-7,0,-9,21957
-2.24686,0.574304,-1.3734,72.75,-77,29.9375,-0.362793,-0.992676,-1.17578,0,-2,3,4,5,5,-4,8,21974
-2.22469,0.584191,-1.3659,75.1875,-83,51.9375,-0.0107422,-1.06348,-1.31641,1,-1,-3,-3,-7,-2,11,-9,21990
-2.20934,0.618931,-1.37328,64.1875,-61.3125,100.5,0.445801,-0.589355,-1.15527,-24,0,12,47,15,-1,-31,11,22007
-2.18993,0.763794,-1.39214,17.8125,-97.8125,127.625,2.16553,-0.859375,-0.246094,-19,-1,-12,10,4,-3,-42,7,22064
-2.15003,0.851432,-1.38123,91.625,-159.375,195.438,2.98096,-0.950195,-0.0424805,-19,0,9,28,15,2,-25,7,22080
-2.05204,0.967003,-1.35446,220.25,-208.813,261.813,3.5415,-1.07813,0.119629,-8,-4,-21,-21,-7,-1,18,-3,22098
-2.05204,0.967003,-1.35446,220.25,-208.813,261.813,3.5415,-1.07813,0.119629,0,1,-4,-9,7,2,1,-7,22115
-1.83166,1.17854,-1.262,144.375,-146,248.25,2.27832,-0.370117,0.197266,23,5,4,26,15,3,16,-18,22131
-1.83166,1.17854,-1.262,144.375,-146,248.25,2.27832,-0.370117,0.197266,1,-1,3,-1,5,2,5,6,22148
-1.73045,1.25625,-1.18491,82.9375,-121.5,201.438,1.93652,0.0297852,0.0732422,-5,1,1,-1,-4,-3,-17,12,22166
-1.60626,1.32103,-1.06319,20.375,-114.625,175.375,2.27246,-0.192871,0.0209961,0,-4,-2,-6,-17,-5,10,4,22183
-1.39987,1.38108,-0.862351,29.625,-113.688,178.75,1.99707,-0.19043,0.0683594,-11,-2,-4,-7,4,8,-14,6,22200
-0.986797,1.42277,-0.473467,84.375,-125.063,179.625,1.20215,0.0371094,0.218262,-3,-3,1,1,1,-1,-2,-2,22217
-0.986797,1.42277,-0.473467,84.375,-125.063,179.625,1.20215,0.0371094,0.218262,3,0,0,-1,-6,-4,2,-9,22234
-0.462446,1.42455,0.0147791,117.188,-127.25,149.875,0.724121,0.396973,0.150391,0,0,1,-2,-4,-3,3,7,22251
-0.0899429,1.3975,0.353345,107.438,-110.25,117.063,0.480957,0.618652,0.22168,7,-1,6,2,-3,10,12,-4,22268
0.184612,1.35758,0.600397,81.1875,-81.6875,86.3125,0.222656,0.812988,0.31543,8,5,-9,-17,-8,-4,-3,2,22285
0.337237,1.31737,0.736972,43.375,-52.3125,51.125,0.0585938,0.984863,0.503906,10,1,-4,-1,-5,3,2,-9,22301
0.417957,1.28397,0.809465,17,-24.9375,15.5,-0.189941,1.09033,0.695313,-7,-5,0,0,3,1,7,-8,22318
0.186148,1.32272,0.59876,-70.625,68.4375,-164.063,0.103516,1.26367,0.419434,-3,-6,6,8,6,-6,30,-5,22382
-0.139105,1.36103,0.307343,-122.563,112.063,-209.813,0.408691,1.09229,0.368164,-8,-2,-13,-1,-2,-14,-33,11,22400
-0.139105,1.36103,0.307343,-122.563,112.063,-209.813,0.408691,1.09229,0.368164,3,1,-6,10,7,0,28,-16,22417
-1.19686,1.32607,-0.638354,-209.875,164.938,-287.813,3.78711,0.188965,-0.635254,-32,-9,-11,-22,3,-14,-31,-5,22433
-1.19686,1.32607,-0.638354,-209.875,164.938,-287.813,3.78711,0.188965,-0.635254,-59,8,-3,-8,-19,5,-42,11,22450
-1.62244,1.23009,-1.0086,-202.188,258.125,-315.875,3.50635,-0.908691,-0.271973,9,-5,-5,-16,-1,-8,40,-14,22468
-1.82524,1.11685,-1.18364,-117.5,241.188,-291,3.77002,-1.0332,-0.194824,40,-2,10,6,-9,-1,27,-10,22485
-1.9027,1.00948,-1.26361,-21.625,196,-262,3.79736,-0.959473,-0.589844,21,-5,8,10,12,-9,2,-14,22502
-1.94276,0.91859,-1.29658,-36.8125,140.063,-226.063,2.97705,-0.643555,-0.449219,0,-2,5,3,6,5,2,11,22519
-1.97652,0.845241,-1.303,-82.5,90.5625,-190.188,2.19287,-0.179199,-0.346191,-1,1,5,17,-1,-1,-18,20,22537
-2.03881,0.785457,-1.29763,-190.125,63,-159.625,1.66211,-0.00439453,-0.418945,0,2,6,2,-1,4,-7,10,22553
-2.03881,0.785457,-1.29763,-190.125,63,-159.625,1.66211,-0.00439453,-0.418945,1,0,1,-16,-2,0,4,-13,22570
-2.12372,0.736324,-1.29271,-251.813,47.0625,-108.25,1.24902,-0.515137,-0.443359,2,-1,-3,8,-7,2,6,-4,22587
-2.19417,0.699055,-1.30181,-185.5,65.1875,-60.375,0.805664,-0.756836,-0.442383,11,1,-1,10,-3,5,18,-3,22604
-2.22632,0.656167,-1.30775,-88.0625,49.8125,-36.125,0.411133,-0.847168,-0.5,-4,-2,-5,-10,-4,6,4,4,22620
-2.22845,0.630097,-1.30853,-5.625,16.375,-17.875,0.217285,-0.749023,-0.5625,-10,-1,2,4,5,-3,-16,0,22638
-2.21971,0.618103,-1.30281,23,-27.625,33.4375,-0.287598,-0.849121,-0.933105,1,0,1,-7,-6,-1,-9,-3,22707
-2.22159,0.623411,-1.31369,24.9375,-22.5625,57,-0.247559,-0.986816,-1.01563,-5,-2,-4,-11,-5,-1,-2,6,22723
-2.22578,0.632751,-1.32406,21.75,-42,75.0625,0.115234,-0.816895,-0.980957,-8,-4,0,-2,-1,2,-3,13,22740
-2.21888,0.651822,-1.33189,46.5625,-63.4375,96.3125,0.308105,-0.67627,-0.808105,29,-3,-9,-17,-1,-5,47,-20,22757
-2.21888,0.651822,-1.33189,46.5625,-63.4375,96.3125,0.308105,-0.67627,-0.808105,-5,1,-2,24,-8,-2,-29,8,22773
-2.20189,0.698946,-1.34062,65.5625,-75.25,131.688,0.40918,-0.69043,-0.623047,26,1,4,-46,-12,4,45,-17,22790
-2.17713,0.751931,-1.34948,87.625,-72.625,135,1.24512,-0.797363,-0.518066,-25,-6,-3,15,12,-4,-26,-5,22806
-2.12378,0.816114,-1.34474,143.375,-108.563,148.313,2.5376,-0.90625,-0.451172,-23,0,-1,24,-1,-6,-53,11,22823
-2.12378,0.816114,-1.34474,143.375,-108.563,148.313,2.5376,-0.90625,-0.451172,-23,0,-1,24,-1,-6,-53,11,22838
-1.92733,1.02711,-1.28621,242,-199.688,252.313,3.58301,-0.993164,0.03125,8,2,10,7,8,6,16,-8,22855
-1.92733,1.02711,-1.28621,242,-199.688,252.313,3.58301,-0.993164,0.03125,-23,-7,-4,-5,-1,-1,-9,13,22873
-1.83456,1.12716,-1.2386,145.563,-149.375,253.563,2.96289,-0.794434,-0.0161133,0,-3,-2,-1,-1,8,14,12,22890
-1.73841,1.21438,-1.16122,70.8125,-137.938,225.125,2.1499,-0.466309,0.214355,-1,-1,-1,-4,-2,-9,-9,4,22907
-1.5954,1.28597,-1.03241,59.5625,-135.563,192.438,2.11182,-0.582031,-0.121582,3,0,1,-1,1,-5,-4,1,22924
-1.39557,1.34482,-0.843098,47.1875,-123.625,178.625,1.84961,-0.267578,-0.0195313,7,1,1,-9,5,-4,1,1,22941
-1.0904,1.38935,-0.556074,69,-116.688,172.625,1.56006,0.0800781,0.0395508,-2,-2,0,0,0,3,1,0,22958
0.0347048,1.36809,0.506876,62.125,-98.875,99.5625,0.294922,0.623535,0.0844727,-14,2,2,-1,-2,5,1,1,23020
0.187152,1.32673,0.642068,49.875,-92.75,55,0.0893555,0.643555,0.205078,-1,5,-4,-7,-6,-5,4,-6,23036
0.187152,1.32673,0.642068,49.875,-92.75,55,0.0893555,0.643555,0.205078,9,4,6,0,-4,-2,-5,-5,23053
0.276324,1.28454,0.706311,63.5625,-84.8125,17.25,-0.0390625,0.870605,0.316406,-1,-6,-14,-6,-1,6,11,-7,23071
0.323313,1.25132,0.724986,67.125,-58,-19.6875,-0.191406,0.980469,0.476074,-5,-2,-1,12,6,-10,-14,6,23088
0.339703,1.22786,0.716468,52.6875,-32.4375,-51.4375,-0.400391,1.04932,0.650391,-29,-3,-7,-6,-9,-9,4,-8,23105
0.25764,1.23399,0.622457,13.5625,-0.75,-109.375,-0.240234,1.15723,0.628906,19,0,-7,-43,-2,-2,30,-4,23122
0.107189,1.25181,0.476433,-41.1875,37.3125,-162.25,0.135254,1.23438,0.608398,20,2,6,-27,4,2,13,-6,23140
