roll,pitch,yaw, gyro_x, gyro_y, gyro_z, accel_x, accel_y, accel_z, EMG0, EMG1, EMG2, EMG3, EMG4, EMG5, EMG6, EMG7, time
-1.90833,-0.739274,-1.25632,102.625,-127.688,147.063,2.05566,-0.348145,0.114258,0,0,0,0,0,0,0,0,278
-1.90628,-0.688077,-1.22987,54.875,-111.5,142.563,1.81836,0.0185547,0.0561523,0,0,0,0,0,0,0,0,297
-1.91412,-0.63836,-1.20375,22.9375,-110.813,135.063,1.43994,0.15625,0.09375,0,0,0,0,0,0,0,0,314
-1.92556,-0.589034,-1.17488,13.1875,-116.875,120.25,0.777344,0.0371094,0.131836,0,0,0,0,0,0,0,0,330
-1.93356,-0.538187,-1.14141,28.3125,-128.313,110.688,0.199219,-0.0166016,-0.00878906,0,0,0,0,0,0,0,0,347
-1.93279,-0.491734,-1.10518,55.6875,-129.813,91.6875,-0.102051,0.108398,-0.13916,0,0,0,0,0,0,0,0,364
-1.93279,-0.491734,-1.10518,55.6875,-129.813,91.6875,-0.102051,0.108398,-0.13916,0,0,0,0,0,0,0,0,381
-1.92435,-0.45684,-1.0731,66.0625,-115.375,75.5,0.481445,0.467285,0.152344,0,0,0,0,0,0,0,0,398
-1.90589,-0.428186,-1.051,63.3125,-90,56.1875,-0.237305,0.433594,0.447754,0,0,0,0,0,0,0,0,415
-1.89214,-0.421666,-1.03482,48.25,-61.125,34,0.185547,0.706543,0.400391,0,0,0,0,0,0,0,0,432
-1.89214,-0.421666,-1.03482,48.25,-61.125,34,0.185547,0.706543,0.400391,0,0,0,0,0,0,0,0,449
-1.86705,-0.434336,-1.03233,-1.3125,6.9375,-28.9375,0.268066,0.817383,0.816895,-1,-9,-1,-1,3,1,-3,-1,466
-1.87519,-0.457293,-1.03887,-22.5,44.875,-73.375,-0.576172,0.589355,0.0361328,1,-2,0,-1,-2,0,8,-1,483
-1.87519,-0.457293,-1.03887,-22.5,44.875,-73.375,-0.576172,0.589355,0.0361328,-10,-5,-3,3,-5,-5,-12,-3,501
-1.89354,-0.569269,-1.08628,-74.5625,111.063,-127.438,0.890625,0.569824,0.454102,0,-1,0,0,3,1,4,-1,518
-1.89354,-0.569269,-1.08628,-74.5625,111.063,-127.438,0.890625,0.569824,0.454102,17,-3,6,-2,-12,-5,9,4,535
-1.91424,-0.844238,-1.26006,-148.063,240.438,-201.938,3.97461,-1.51953,-0.20166,-21,-6,-4,-11,-6,9,14,-3,601
-1.87182,-0.91905,-1.34623,-69.0625,216.813,-153.188,3.36133,-1.43945,-0.336914,14,3,-2,4,-4,-3,15,3,619
-1.82618,-0.982248,-1.41399,-27.75,158.5,-143.438,2.76123,-1.20166,-0.5625,0,-1,-2,3,2,-3,3,-1,637
-1.80232,-1.04561,-1.46874,-62.75,127.313,-147,2.24756,-0.637695,-0.478516,-3,-1,-1,0,0,1,-6,-4,654
-1.82062,-1.10034,-1.51492,-165.375,99.625,-125.125,1.99023,-0.203125,-0.31543,-1,-1,-2,1,3,-4,-11,-5,671
-1.82062,-1.10034,-1.51492,-165.375,99.625,-125.125,1.99023,-0.203125,-0.31543,-1,-1,-2,1,3,-4,-11,-5,688
-1.84159,-1.17445,-1.63465,-160.375,107.375,-74.3125,1.25488,-0.813965,-0.565918,-2,-2,-1,-3,-2,1,3,-1,706
-1.82505,-1.19152,-1.68706,-85.625,89.5,-57.5625,0.859375,-0.703125,-0.426758,-2,-1,1,-2,1,0,-4,0,723
-1.82505,-1.19152,-1.68706,-85.625,89.5,-57.5625,0.859375,-0.703125,-0.426758,-1,-2,2,-2,3,-4,-2,-4,739
-1.82227,-1.20157,-1.70362,-29.625,48.4375,-41.8125,0.526855,-0.472656,-0.427734,1,-1,2,1,-1,-6,-3,-2,757
-1.84742,-1.20231,-1.68512,-12.8125,9,-19.5625,0.210938,-0.277344,-0.444824,1,1,2,1,0,-3,-4,-3,774
-1.88775,-1.19709,-1.65096,-15.3125,-6.3125,-11.25,-0.0668945,-0.198242,-0.487305,-3,-4,-2,-2,-5,-2,-7,-4,791
-1.93172,-1.18889,-1.61511,-18.75,-5.9375,-13.9375,-0.273926,-0.269531,-0.556152,4,-2,0,-1,-11,-4,12,7,809
-1.96933,-1.17451,-1.58641,-18.875,0.6875,-8.5625,-0.394531,-0.408691,-0.65625,-5,-3,-3,-2,-2,0,-11,-3,826
-2.00204,-1.15344,-1.55786,-5.8125,-1.75,2.75,-0.294922,-0.501465,-0.767578,1,-2,-2,-3,-1,0,-8,-1,843
-2.00204,-1.15344,-1.55786,-5.8125,-1.75,2.75,-0.294922,-0.501465,-0.767578,-7,-1,2,-2,2,1,-16,-3,860
-2.06528,-1.05171,-1.44794,73.8125,-53.8125,56.875,0.182129,-0.654297,-0.854492,2,-2,-6,-3,2,6,10,0,912
-2.05821,-0.998767,-1.42679,79.4375,-66.8125,85.9375,0.449707,-0.823242,-0.671387,-15,2,-3,0,-10,-1,-2,-5,929
-2.04467,-0.971969,-1.40856,84.75,-64.1875,65,1.76709,-0.900391,-0.506836,10,-4,5,-3,8,2,-24,-1,946
-2.01763,-0.92916,-1.38781,125.688,-85.4375,94.6875,2.74805,-0.957031,-0.342773,-18,-5,-2,-5,10,-12,-17,-8,963
-2.01763,-0.92916,-1.38781,125.688,-85.4375,94.6875,2.74805,-0.957031,-0.342773,8,1,1,12,9,7,18,2,980
-1.97297,-0.774563,-1.31243,157.25,-159.063,185.875,2.60645,-1.55566,0.134766,8,-3,-6,-10,-8,4,34,3,998
-1.97297,-0.774563,-1.31243,157.25,-159.063,185.875,2.60645,-1.55566,0.134766,5,3,1,1,11,4,5,-1,1015
-1.95302,-0.699582,-1.2872,105.75,-131.688,178.188,2.27344,-1.38867,-0.0932617,-6,-3,-2,0,9,0,-16,-3,1032
-1.95302,-0.699582,-1.2872,105.75,-131.688,178.188,2.27344,-1.38867,-0.0932617,-6,-3,-2,0,9,0,-16,-3,1049
-1.93333,-0.58473,-1.24559,62.6875,-111,133.125,2.1123,-0.474121,-0.00878906,1,-2,1,1,-2,1,15,-1,1066
-1.92822,-0.528618,-1.2205,52.8125,-113.875,129.25,1.89893,-0.129883,-0.0419922,1,0,-1,-3,-6,0,4,-1,1083
-1.92822,-0.528618,-1.2205,52.8125,-113.875,129.25,1.89893,-0.129883,-0.0419922,0,1,-2,-2,-1,-1,-6,-3,1100
-1.92275,-0.475997,-1.19232,53.6875,-127.438,138.125,1.47021,0.0493164,0.0522461,-2,1,-1,0,-3,-4,-3,0,1117
-1.91662,-0.423639,-1.15998,56.6875,-136.063,128.875,1.06201,0.097168,0.0961914,-2,-1,1,-1,4,2,-5,0,1135
-1.91002,-0.377608,-1.12453,57.3125,-136.938,104.688,0.73877,0.121582,0.101563,-6,0,0,-1,-3,-1,-3,-2,1152
-1.89924,-0.337085,-1.08959,64.0625,-130.375,86.5,0.422363,0.192871,0.188965,0,-2,0,-3,-1,0,2,-1,1169
-1.85706,-0.28153,-1.0364,73.75,-82.5,44.125,-0.0922852,0.515137,0.438965,2,0,-2,-2,-6,1,9,-3,1218
-1.82758,-0.274408,-1.0255,68.25,-42.0625,11.6875,-0.19043,0.68457,0.574707,0,-2,0,-1,-4,-2,-5,1,1234
-1.80454,-0.284572,-1.02822,43.625,6.875,-20.375,-0.187012,0.948242,0.549316,0,-1,2,-1,-5,-1,9,1,1251
-1.7955,-0.308011,-1.04022,0.5625,41.1875,-53.3125,-0.230957,0.92627,0.455566,3,-2,1,0,-7,-2,6,2,1267
-1.8023,-0.350627,-1.0559,-48.8125,60.25,-92.0625,-0.0136719,0.769531,0.420898,3,-2,1,0,-7,-2,6,2,1284
-1.822,-0.404539,-1.07589,-79.6875,84.625,-126,0.349609,0.894043,0.385254,1,3,3,-9,-8,1,25,2,1301
-1.822,-0.404539,-1.07589,-79.6875,84.625,-126,0.349609,0.894043,0.385254,5,-3,-6,-3,-9,-2,5,-2,1318
-1.84304,-0.467183,-1.10322,-94.8125,111.125,-140.75,0.500488,0.886719,0.3125,0,3,2,7,18,-1,-21,1,1335
-1.88285,-0.542971,-1.13564,-158.875,140.438,-184.688,1.58154,0.466309,-0.0170898,-8,6,12,15,13,6,-43,-4,1352
-1.92003,-0.655796,-1.18442,-185.125,214.125,-268.5,3.14844,-0.296387,-0.220703,3,0,-6,-5,-7,5,19,0,1369
-1.94246,-0.766047,-1.23913,-167.25,223.25,-254.313,3.33301,-1.26416,0.0932617,-8,-1,-6,-6,-13,-2,8,-25,1386
-1.91883,-0.864391,-1.29845,-56.4375,208.375,-223,3.79834,-1.06934,-0.241211,28,1,4,1,2,2,26,25,1403
-1.87809,-0.954042,-1.36846,-42.5,199.813,-203.5,3.27832,-0.802734,-0.37207,-11,-3,-7,-1,3,3,-20,-15,1420
-1.87809,-0.954042,-1.36846,-42.5,199.813,-203.5,3.27832,-0.802734,-0.37207,-4,-2,-2,0,-3,-10,-4,-1,1437
-1.84226,-1.03334,-1.43988,-68.25,171.688,-185.813,2.75439,-0.516602,-0.402344,-1,2,4,4,1,1,2,5,1454
-1.84226,-1.03334,-1.43988,-68.25,171.688,-185.813,2.75439,-0.516602,-0.402344,-1,2,4,4,1,1,2,5,1470
-1.83972,-1.24885,-1.69079,-117.188,78.875,-71.5625,0.869141,-0.762695,-0.539551,-1,-2,0,-2,0,-2,-2,3,1534
-1.84466,-1.24934,-1.70631,-48.5625,50.4375,-34.75,0.478027,-0.708496,-0.595703,0,1,2,1,2,-1,-6,-1,1552
-1.85263,-1.23683,-1.69963,3.375,19.0625,-3.5,0.149414,-0.602539,-0.546387,1,-3,0,-2,-1,-1,3,-2,1568
-1.86984,-1.22051,-1.67523,27.0625,1.9375,6.75,-0.0600586,-0.467773,-0.580078,0,-2,-3,0,-2,-2,2,0,1586
-1.90903,-1.2039,-1.63158,16.5625,-12.0625,-0.625,-0.239258,-0.415039,-0.658203,-1,-2,0,-1,-2,-2,-1,-4,1603
-1.90903,-1.2039,-1.63158,16.5625,-12.0625,-0.625,-0.239258,-0.415039,-0.658203,-2,0,-2,-1,1,-2,-5,-1,1619
-1.96399,-1.18222,-1.57603,6.375,-20.5625,-3.8125,-0.35791,-0.512695,-0.836426,0,-3,-1,-2,2,3,10,17,1636
-2.01302,-1.1489,-1.52264,18,-24.4375,13.125,-0.282715,-0.674316,-1.03955,0,-1,0,-2,-8,-5,-4,-8,1653
-2.04509,-1.10679,-1.48377,28.625,-29.75,45,0.00585938,-0.68457,-1.06641,-3,-2,2,0,0,1,2,-8,1670
-2.0657,-1.06193,-1.44995,46.25,-46.75,68.5,0.228027,-0.523438,-0.931641,4,-1,0,-5,-12,2,28,2,1687
-2.06958,-1.0141,-1.42338,66.625,-66.25,85.3125,0.404785,-0.507324,-0.670898,-2,-2,5,-1,1,7,-7,-2,1704
-2.05022,-0.971576,-1.41846,71.5,-52.4375,96.375,0.993164,-0.736328,-0.507324,3,0,-3,5,2,-1,23,7,1720
-2.05022,-0.971576,-1.41846,71.5,-52.4375,96.375,0.993164,-0.736328,-0.507324,-13,-3,-7,-1,-5,-8,-35,-12,1737
-2.0456,-0.930631,-1.40045,55.625,-80.75,90.25,2.30762,-0.999023,-0.397461,-3,3,6,6,15,3,10,5,1754
-2.0271,-0.858025,-1.37467,109.875,-134.5,165.188,2.97803,-0.969727,-0.193359,18,1,-1,-3,6,5,24,3,1771
-1.99793,-0.76711,-1.32469,188.25,-200.875,193.625,3.28418,-1.34473,0.154297,13,-2,-8,1,-8,-2,25,6,1789
-1.89808,-0.440848,-1.21553,49.1875,-119,177.313,2.0835,-0.199707,0.00390625,-4,-3,0,-4,-1,-2,-6,-2,1870
-1.89317,-0.373242,-1.1963,35.625,-109.813,167.563,1.85303,0.0996094,0.0522461,-4,-2,-1,-2,-1,-1,4,2,1887
-1.88655,-0.313522,-1.17499,37.9375,-116.25,166.25,1.3667,0.148438,0.146484,-2,0,-1,-1,7,0,-2,-3,1904
-1.87765,-0.256259,-1.14749,46.1875,-127.188,148.125,0.889648,0.213379,0.128418,-1,0,-2,0,-7,-4,-2,-1,1922
-1.87765,-0.256259,-1.14749,46.1875,-127.188,148.125,0.889648,0.213379,0.128418,1,-1,0,-1,-2,-1,-3,-1,1938
-1.86671,-0.207521,-1.11732,50.1875,-125.313,117.625,0.516602,0.27002,0.157227,0,-3,-1,-1,-2,-1,-3,-1,1955
-1.85016,-0.168549,-1.08743,60.875,-113.938,87.625,0.195801,0.430664,0.268555,0,0,2,-1,-4,-1,9,2,1973
-1.82477,-0.14536,-1.06261,71.375,-89.5,53.3125,0.0166016,0.720215,0.379395,1,-2,1,0,-5,1,2,0,1989
-1.80464,-0.136199,-1.04784,46.9375,-49.625,15.3125,-0.149902,1.06885,0.51123,-3,-1,-2,-3,-2,-1,-1,-1,2007
-1.79647,-0.14472,-1.04539,5.625,-3.25,-28.1875,-0.230469,1.26416,0.579102,-4,-1,0,-2,-2,0,-1,1,2024
-1.80627,-0.173997,-1.04889,-41.9375,25.5625,-74.5625,-0.137207,1.15967,0.472656,1,1,0,8,8,1,-27,-4,2041
-1.80627,-0.173997,-1.04889,-41.9375,25.5625,-74.5625,-0.137207,1.15967,0.472656,9,-6,-2,-11,-11,3,44,8,2059
-1.83252,-0.222033,-1.05827,-83.0625,57.1875,-121,0.147461,0.995605,0.416016,-12,-1,-2,-8,0,1,-2,-1,2076
-1.86549,-0.288755,-1.07502,-107.688,94.125,-160.5,0.371094,0.946289,0.357422,-3,-2,-2,9,19,1,-29,-4,2093
-1.90852,-0.373595,-1.09673,-142.5,127.5,-198.5,0.648438,0.72168,0.183594,-13,8,-6,-8,-17,-1,9,1,2110
-1.96492,-0.482297,-1.12526,-195.625,181,-264.75,2.27686,0.431641,-0.0800781,-17,-6,-2,-9,-26,-4,-7,-3,2128
-1.99305,-0.844076,-1.26104,-27.6875,221.313,-240.625,3.58105,-1.06543,-0.17041,0,5,1,3,4,-4,-9,-3,2204
-1.90867,-1.01694,-1.38807,-44.9375,177.188,-173.688,2.82422,-0.325684,-0.230469,8,0,-2,-1,4,8,7,2,2221
-1.90867,-1.01694,-1.38807,-44.9375,177.188,-173.688,2.82422,-0.325684,-0.230469,-3,-1,-3,-1,-8,-4,4,-4,2238
-1.90347,-1.08897,-1.4472,-130.313,145.75,-153.938,2.32471,-0.279297,-0.285156,-3,-2,0,-1,-2,-5,-2,-4,2255
-1.92614,-1.14676,-1.50108,-202.688,121.75,-127.438,1.75732,-0.360352,-0.397949,-1,-1,0,0,-3,-1,9,1,2272
-1.95117,-1.18751,-1.55006,-198.813,98.25,-93.5,1.02393,-0.65625,-0.492188,3,-1,1,-2,6,4,4,-4,2288
-1.97093,-1.20824,-1.5844,-146.938,63.4375,-48.1875,0.627441,-0.625,-0.560547,-7,0,-1,-1,-1,0,-1,-11,2305
-1.97093,-1.20824,-1.5844,-146.938,63.4375,-48.1875,0.627441,-0.625,-0.560547,1,0,1,-2,-1,-4,-8,2,2322
-1.99687,-1.2073,-1.58999,-80.4375,39.8125,-20.1875,0.434082,-0.523438,-0.625977,1,-2,-1,-1,-2,-2,4,2,2339
-2.01824,-1.18867,-1.57812,-20.75,8.0625,9.6875,0.197754,-0.583496,-0.683105,-1,-3,1,-1,0,0,1,-3,2356
-2.0311,-1.1538,-1.55358,38.125,-22,36.5,-0.0385742,-0.646484,-0.721191,-6,-3,-1,-1,-2,-3,-1,-9,2374
-2.04374,-1.11502,-1.51668,72,-37.875,36.1875,-0.284668,-0.577637,-0.762695,-4,-2,0,-1,-3,-3,-5,-3,2392
-2.0639,-1.07762,-1.47128,74.125,-43.6875,22.1875,-0.405273,-0.565918,-0.858398,-8,0,-2,1,1,-3,-14,-3,2410
-2.08181,-1.03728,-1.43105,67.8125,-41.5,27.4375,-0.225586,-0.67627,-0.987793,-1,-3,-4,-1,-2,0,-3,2,2427
-2.08181,-1.03728,-1.43105,67.8125,-41.5,27.4375,-0.225586,-0.67627,-0.987793,2,-3,2,1,-1,0,7,0,2444
-2.09566,-0.989527,-1.39965,59.6875,-49.9375,64.8125,0.0678711,-0.57666,-1.02979,-4,-3,-3,-2,-6,-4,-6,-2,2461
-2.0366,-0.800836,-1.3885,73,-91.6875,127.313,2.54541,-0.78418,-0.200195,-6,-2,4,-3,-2,6,9,2,2523
-2.0366,-0.800836,-1.3885,73,-91.6875,127.313,2.54541,-0.78418,-0.200195,3,-10,-6,-1,0,4,15,-1,2541
-2.00542,-0.714778,-1.36106,143.938,-159.125,197.375,2.80127,-1.00537,0.00634766,4,-5,-9,-5,-11,1,42,10,2558
-1.95542,-0.610863,-1.31411,226,-216.188,231.188,3.16113,-1.17773,0.230957,4,-5,-9,-5,-11,1,42,10,2574
-1.90044,-0.509157,-1.27419,218.5,-193.063,239.563,2.99805,-1.26416,0.106934,1,-2,-1,0,3,-5,-9,-3,2591
-1.87867,-0.419588,-1.24459,100.5,-152.75,220,2.41943,-0.376465,0.397949,-4,0,-7,-4,3,3,-16,-7,2608
-1.86698,-0.341954,-1.21794,61.9375,-133.875,191.125,2.15332,-0.217773,0.15918,1,-3,-4,-1,-11,-5,1,-2,2625
-1.87255,-0.269705,-1.19475,3.8125,-121.688,179.125,2.06641,-0.0703125,0.081543,-1,-2,-1,1,-8,-4,5,-6,2642
-1.87255,-0.269705,-1.19475,3.8125,-121.688,179.125,2.06641,-0.0703125,0.081543,-1,-2,-4,-2,0,-1,-5,-1,2659
-1.88192,-0.209452,-1.17065,-13.0625,-123.813,167.438,1.42236,0.0126953,0.161133,-1,-2,-4,-2,0,-1,-5,-1,2675
-1.88108,-0.148701,-1.13841,16.0625,-145.5,153.875,0.980469,0.108398,0.180664,3,0,-1,0,-3,-4,5,-1,2692
-1.88108,-0.148701,-1.13841,16.0625,-145.5,153.875,0.980469,0.108398,0.180664,0,-1,0,-1,1,0,-1,0,2709
-1.85083,-0.0531547,-1.0729,57,-123.938,105.875,0.62207,0.529785,0.192871,1,-1,-1,-1,0,1,-1,-1,2726
-1.85083,-0.0531547,-1.0729,57,-123.938,105.875,0.62207,0.529785,0.192871,-3,-3,1,-2,2,0,-3,-1,2743
-1.82889,-0.0231072,-1.04871,55.25,-93.5625,77.25,0.182617,0.669922,0.333984,-3,-3,1,-2,2,0,-3,-1,2760
-1.80651,-0.00216457,-1.02692,44.8125,-73.5,35.9375,-0.104004,0.736816,0.479492,-4,1,0,2,3,1,4,-2,2778
-1.8199,-0.0709141,-1.02295,-82.5,68.25,-117.813,0.112793,1.07227,0.416016,-14,-12,-2,-7,-10,-6,15,2,2873
-1.89028,-0.230262,-1.0703,-129.625,147.313,-213.938,1.05811,0.591309,-0.0112305,-3,7,-2,-4,-2,-3,-18,-1,2890
-1.94383,-0.349061,-1.10075,-178,193.938,-292.125,3.67334,-0.0175781,-0.432129,-31,-9,-4,-3,-19,-10,-20,-5,2907
-1.97987,-0.47532,-1.14928,-159.688,256.625,-286.5,3.13281,-1,-0.119141,-14,1,-8,-10,1,9,-3,-2,2925
-1.98491,-0.589882,-1.18966,-73.25,222.875,-260.938,3.646,-1.09668,0.0444336,8,-3,-8,1,-1,-3,5,-2,2942
-1.98491,-0.589882,-1.18966,-73.25,222.875,-260.938,3.646,-1.09668,0.0444336,12,6,1,0,-1,-2,3,3,2959
-1.96112,-0.693948,-1.23644,-12.6875,215.938,-232.625,3.28369,-0.914551,-0.339844,-8,-1,-2,-2,1,4,6,-1,2976
-1.93197,-0.785072,-1.2849,-9.625,190.938,-205,3.0083,-0.517578,-0.205078,2,4,1,5,6,1,-3,-2,2993
-1.92306,-0.865273,-1.32918,-68,161.125,-185.688,2.52393,-0.219238,-0.274902,6,2,0,2,-2,0,2,4,3010
-1.92306,-0.865273,-1.32918,-68,161.125,-185.688,2.52393,-0.219238,-0.274902,-5,-1,1,-1,9,4,-3,-4,3027
-1.96063,-0.941568,-1.36512,-185.75,136.438,-163.188,2.08984,-0.141113,-0.365234,3,0,-1,2,-4,-6,2,-4,3044
-2.01558,-0.996104,-1.3948,-226.75,107.875,-120.375,1.38721,-0.596191,-0.413086,0,-1,1,-3,2,0,-2,-1,3061
-2.05632,-1.03169,-1.42265,-183.125,87.125,-76.0625,0.859375,-0.714844,-0.516602,3,0,1,-2,2,4,2,9,3077
-2.07945,-1.05436,-1.44383,-117.938,65,-50.0625,0.571289,-0.761719,-0.620605,-3,-2,0,-2,-2,-3,-4,0,3095
-2.10002,-1.0522,-1.44778,-59.0625,37.125,-23.125,0.281738,-0.650391,-0.675293,1,-1,0,-1,-3,-2,0,-3,3112
-2.10768,-1.02954,-1.43994,6.75,0.875,10.125,0.0102539,-0.672363,-0.727539,3,0,-1,-1,8,10,7,8,3129
-2.12518,-0.8613,-1.34282,54.75,-47.75,64.5625,0.186523,-0.647949,-0.952148,-4,-2,-3,-1,-3,-2,-7,-8,3203
-2.12518,-0.8613,-1.34282,54.75,-47.75,64.5625,0.186523,-0.647949,-0.952148,5,2,4,6,14,-1,-8,3,3221
-2.12085,-0.816119,-1.33574,49.8125,-47.875,97.375,0.375488,-0.429199,-0.805664,7,0,3,5,26,-21,-12,6,3238
-2.10593,-0.769828,-1.342,31.4375,-55.0625,118.938,0.459473,-0.48291,-0.457031,1,-3,3,-2,-14,1,8,2,3255
-2.09041,-0.730788,-1.35121,25.625,-44.3125,112.313,1.23438,-0.675293,-0.289551,-13,-6,-14,-8,6,0,-25,-2,3271
-2.06893,-0.680582,-1.34426,74.5,-83.125,118.25,2.61572,-0.71582,-0.196289,-22,-5,1,0,-14,2,-18,-8,3288
-2.03315,-0.597231,-1.32522,135.25,-149.563,191.813,2.60449,-1.00146,-0.0751953,5,1,-3,-10,-15,-9,11,-5,3305
-2.03315,-0.597231,-1.32522,135.25,-149.563,191.813,2.60449,-1.00146,-0.0751953,-3,-2,-2,-6,-5,15,26,4,3322
-1.97761,-0.493191,-1.28665,216.313,-211.375,230.875,3.13135,-1.25928,0.30127,12,4,-4,2,8,10,3,5,3339
-1.92768,-0.397626,-1.25084,187.5,-188.5,220,2.94189,-1.41992,-0.0742188,12,4,-4,2,8,10,3,5,3356
-1.91679,-0.309765,-1.22503,56.5625,-151.75,212.375,2.29688,-0.499023,0.387695,5,-1,-2,1,-2,-10,-9,-3,3373
-1.90514,-0.228689,-1.19736,54.6875,-149.813,193.75,2.15625,-0.378418,0.165527,-3,-2,-2,-1,15,13,-11,-4,3390
-1.90637,-0.155667,-1.17323,9.625,-133.063,174.938,2.00049,-0.0356445,0.0756836,-4,-2,-3,-3,-2,0,-6,-4,3407
-1.90952,-0.0922401,-1.15024,-3.4375,-130.125,173.75,1.45703,0.139648,0.17334,2,-1,-3,2,1,-2,-1,-1,3425
-1.90547,-0.0296817,-1.12423,13.1875,-135.563,161.188,1.0249,0.0561523,0.180176,-3,-12,-4,0,3,-2,-3,-2,3443
-1.90547,-0.0296817,-1.12423,13.1875,-135.563,161.188,1.0249,0.0561523,0.180176,-5,1,0,-1,-4,-3,-5,-2,3458
-1.85484,0.109881,-1.04276,38.8125,-95.9375,91.125,0.269043,0.614746,0.310547,-2,0,1,0,-9,-1,-6,-1,3524
-1.81905,0.152804,-1.01022,14.25,-36.125,9.0625,-0.193359,0.889648,0.625488,-2,-1,-4,-4,-2,0,5,2,3542
-1.81905,0.152804,-1.01022,14.25,-36.125,9.0625,-0.193359,0.889648,0.625488,6,-2,-1,0,2,-1,-3,0,3557
-1.81341,0.151828,-1.00758,-8.6875,2.8125,-27,-0.19873,0.975098,0.608398,-2,-7,-3,-3,-4,-3,-8,-2,3573
-1.81963,0.129498,-1.01772,-34.375,49.4375,-66.5625,-0.0454102,0.983398,0.568359,2,0,-4,1,1,3,2,0,3590
-1.84206,0.0834549,-1.04052,-60.1875,96.75,-109.625,0.157715,1.00684,0.460449,3,5,2,-2,-9,-3,4,-3,3607
-1.87304,0.0182475,-1.07042,-84.8125,133.375,-149.875,0.330566,0.944824,0.313477,5,-7,-6,-7,13,3,-5,-2,3624
-1.87304,0.0182475,-1.07042,-84.8125,133.375,-149.875,0.330566,0.944824,0.313477,-3,-3,3,-1,0,-8,-4,1,3641
-1.91724,-0.067508,-1.10561,-125.5,169.563,-188.313,0.738281,0.694336,0.0532227,-3,-1,1,-7,-13,2,13,4,3658
-1.96476,-0.182967,-1.14635,-151,228.063,-266.813,3.20996,0.333008,-0.318848,7,8,0,-2,8,7,-7,1,3675
-2.00297,-0.31438,-1.20464,-151.063,300.438,-280.188,2.98389,-1.00781,-0.202637,5,-4,-10,-9,6,10,11,-1,3692
-2.02674,-0.43821,-1.25249,-118.25,267.625,-265.938,3.74121,-1.08789,0.0214844,-1,-3,-6,3,4,-3,-7,-4,3710
-2.02674,-0.43821,-1.25249,-118.25,267.625,-265.938,3.74121,-1.08789,0.0214844,5,1,0,-5,-14,-3,20,0,3727
-2.02674,-0.43821,-1.25249,-118.25,267.625,-265.938,3.74121,-1.08789,0.0214844,5,1,0,-5,-14,-3,20,0,3744
-1.97663,-0.650891,-1.33651,9.75,203.375,-221,3.1875,-0.679688,-0.256348,-5,-3,0,4,0,-6,4,2,3761
-1.96601,-0.735876,-1.37112,-33.3125,165.188,-194.75,2.61963,-0.364746,-0.29541,-5,-3,0,4,0,-6,4,2,3779
-2.13284,-0.920841,-1.40927,-197.438,72.5625,-92.1875,0.962402,-0.765137,-0.462402,-1,-2,2,-3,6,1,1,-2,3835
-2.16393,-0.949234,-1.42795,-133,75.9375,-59.0625,0.558594,-0.888672,-0.560547,-5,-1,1,-2,-1,2,1,-4,3853
-2.16968,-0.951271,-1.44254,-49.4375,47.625,-28.375,0.247559,-0.798828,-0.543945,1,-2,0,0,-3,-3,-2,-2,3871
-2.16409,-0.935042,-1.44405,17.9375,11.875,2.0625,0.0380859,-0.697266,-0.64502,2,-2,1,0,0,-4,-3,0,3888
-2.15324,-0.90559,-1.4369,58.0625,-14.875,25,-0.148438,-0.611816,-0.70459,0,-3,1,-1,1,3,15,-1,3906
-2.15324,-0.90559,-1.4369,58.0625,-14.875,25,-0.148438,-0.611816,-0.70459,0,-3,1,-1,1,3,15,-1,3923
-2.1499,-0.873,-1.41589,74.375,-30.9375,19.0625,-0.262207,-0.547363,-0.846191,0,-3,-2,-2,-1,-1,4,4,3941
-2.15528,-0.833656,-1.38749,68.875,-44.5625,19.875,-0.282715,-0.674316,-1.04395,-2,-1,1,-1,-4,-2,-11,-3,3958
-2.15792,-0.789108,-1.36702,61.3125,-44.75,43.9375,-0.0419922,-0.783691,-1.16016,-3,-2,-1,-2,-4,-3,0,-4,3975
-2.15454,-0.741645,-1.35892,51.375,-47.3125,85.9375,0.265137,-0.635742,-1.02588,-6,-2,-2,-1,5,0,-4,-2,3992
-2.1373,-0.69276,-1.36436,43,-61.6875,122.063,0.338867,-0.533203,-0.655273,-3,0,5,5,3,-4,-2,-2,4009
-2.12231,-0.644029,-1.36856,36.0625,-67.0625,126.438,0.864258,-0.69043,-0.495605,8,-2,5,2,-9,7,33,5,4027
-2.11087,-0.592054,-1.35872,49.375,-97.0625,115.25,2.43701,-0.83252,-0.365723,7,-4,-6,-13,-14,-1,26,5,4044
-2.11087,-0.592054,-1.35872,49.375,-97.0625,115.25,2.43701,-0.83252,-0.365723,25,11,4,-1,8,2,-15,-2,4061
-2.08189,-0.507477,-1.34784,99.25,-145,196.188,2.82178,-0.816406,-0.125488,-4,-1,-12,0,10,5,11,1,4078
-2.03517,-0.40342,-1.3134,177.688,-218.063,222,3.13916,-1.34521,0.220703,-17,-5,-8,-4,7,-5,-27,-1,4094
-1.88593,-0.0188052,-1.19273,30.9375,-140.563,201.5,2.28857,-0.105469,0.090332,-9,-2,-3,1,5,0,-14,-3,4166
-1.88593,-0.0188052,-1.19273,30.9375,-140.563,201.5,2.28857,-0.105469,0.090332,-5,-2,-2,2,3,1,-3,0,4183
-1.8893,0.0588304,-1.16903,-11.1875,-133.938,190.313,1.75098,0.0888672,0.116699,0,0,-3,2,5,2,-2,0,4201
-1.88692,0.130406,-1.13759,-5.25,-154.688,184,1.0708,0.097168,0.249023,0,-1,0,-1,0,-1,-7,-1,4218
-1.87019,0.194665,-1.10127,29.5,-157.875,157.5,0.880859,0.271484,0.149414,-1,-2,-1,-1,4,-4,-4,0,4235
-1.84413,0.247682,-1.06505,51.3125,-142.25,125.938,0.672852,0.478516,0.169922,1,-1,-1,-2,2,1,-1,3,4252
-1.81514,0.291242,-1.03574,59.125,-110.438,100.875,0.262207,0.595215,0.255371,-3,-1,2,1,9,4,1,0,4268
-1.78165,0.325227,-1.00709,54,-88.9375,60.9375,-0.00634766,0.733398,0.431152,-1,0,0,1,-6,-3,-7,0,4286
-1.78165,0.325227,-1.00709,54,-88.9375,60.9375,-0.00634766,0.733398,0.431152,-1,-2,-5,-1,-4,-5,2,-2,4303
-1.75406,0.343264,-0.985162,35.9375,-54,9.0625,-0.153809,0.890625,0.527832,9,2,1,-1,-3,-2,-6,0,4320
-1.73747,0.346286,-0.975347,14.75,-12.5,-33.1875,-0.21875,1.0332,0.550781,-2,-11,-8,-2,-5,-2,4,-1,4337
-1.73233,0.333884,-0.978428,-6.1875,27.875,-67.4375,-0.199219,0.958496,0.53418,5,14,4,3,1,-2,-8,1,4355
-1.75001,0.296643,-0.994007,-42.1875,62.5,-103.313,-0.0517578,0.937988,0.507813,-2,-9,-1,-3,-5,-1,18,0,4372
-1.78012,0.241802,-1.01668,-72.1875,92.875,-142.938,0.181152,0.926758,0.38623,-8,-6,-10,-5,0,-1,-6,-1,4388
-1.82768,0.168098,-1.04475,-118.25,123.75,-182.125,0.473145,0.801758,0.129883,9,-5,1,-5,-3,-4,-9,-2,4405
-1.82768,0.168098,-1.04475,-118.25,123.75,-182.125,0.473145,0.801758,0.129883,-5,7,5,6,-7,-2,4,-2,4422
-1.98205,-0.293167,-1.21556,-5.8125,224.688,-257.063,3.62256,-1.19092,-0.23291,1,2,-1,3,4,-7,0,-2,4492
-1.97301,-0.397337,-1.25351,-11.125,212.313,-233.563,3.2959,-0.621094,-0.317871,2,3,4,5,24,14,-6,3,4509
-1.97096,-0.490529,-1.28855,-37.1875,187.938,-210.75,2.95801,-0.368164,-0.322754,0,0,-4,0,-8,-5,-5,0,4526
-1.97096,-0.490529,-1.28855,-37.1875,187.938,-210.75,2.95801,-0.368164,-0.322754,-1,0,-1,5,0,-5,-5,-2,4543
-2.00153,-0.575151,-1.31314,-123.875,153.625,-197.563,2.33252,-0.279785,-0.373535,0,-1,-2,1,-6,-8,-1,-1,4560
-2.07337,-0.654587,-1.32885,-229.188,127.875,-168.938,1.73975,-0.318359,-0.359863,0,0,-3,-2,-1,-2,3,-1,4575
-2.13943,-0.715756,-1.3437,-217,114.625,-129.75,1.11572,-0.703125,-0.389648,-4,-1,1,-2,-4,0,-7,-11,4592
-2.18227,-0.762165,-1.35844,-151.75,100.813,-94.0625,0.745605,-0.725586,-0.486328,-3,0,3,-2,-5,-5,-3,-5,4610
-2.18227,-0.762165,-1.35844,-151.75,100.813,-94.0625,0.745605,-0.725586,-0.486328,0,-3,0,-2,1,1,-1,1,4627
-2.2044,-0.789277,-1.36652,-73.375,73.625,-64.9375,0.507324,-0.626465,-0.605469,-1,-2,3,-1,1,-3,-2,0,4644
-2.20767,-0.790238,-1.36797,-4.3125,33.75,-26.9375,0.193359,-0.686523,-0.716797,-3,-1,-2,-3,-3,-4,-11,-1,4660
-2.19195,-0.768301,-1.36323,63.6875,-3.375,3.9375,-0.0810547,-0.785645,-0.789551,-2,-1,4,6,3,0,3,-3,4677
-2.17599,-0.741487,-1.34579,98.5625,-24.3125,1.875,-0.248047,-0.646973,-0.888184,7,-2,0,-5,-10,-3,22,6,4695
-2.17553,-0.710356,-1.3172,81.75,-43.6875,-4.9375,-0.319824,-0.668457,-1.04053,2,0,-1,-1,-3,-3,0,12,4713
-2.17938,-0.67329,-1.29489,53.1875,-49.9375,20,-0.117676,-0.788086,-1.07031,-6,-1,-7,-3,0,3,8,0,4731
-2.17853,-0.635629,-1.28764,38.25,-40,58.75,0.199707,-0.717773,-0.990723,-1,0,0,-1,4,-1,-4,-4,4748
-2.15178,-0.509841,-1.30286,9.6875,-64.125,110.5,1.51172,-0.856934,-0.286133,-7,-5,5,-4,-8,-14,-29,-3,4819
-2.12727,-0.443244,-1.30606,65.75,-95.75,165.063,2.80078,-0.776855,0.0170898,1,-4,5,-4,8,1,-6,0,4837
-2.07417,-0.346957,-1.2966,162.438,-161.125,225.688,3.07471,-0.943359,0.248535,4,-1,-4,-4,-18,-11,16,4,4854
-2.00035,-0.234234,-1.27506,229.375,-198.688,262.313,3.28613,-1.22754,0.439941,-5,5,-5,0,-13,-10,8,5,4872
-1.95358,-0.13143,-1.26403,139.813,-145.313,258.5,2.88574,-1.04395,0.156738,-15,-3,-3,-6,5,2,-33,-6,4890
-1.93925,-0.0393576,-1.25557,43.25,-119.063,236.75,2.22412,-0.465332,0.381836,8,7,0,8,21,1,-4,-1,4906
-1.93925,-0.0393576,-1.25557,43.25,-119.063,236.75,2.22412,-0.465332,0.381836,-5,-2,-4,1,3,-1,-9,-3,4923
-1.93068,0.048432,-1.24518,24.25,-117.625,224.5,2.10693,-0.384766,0.107422,-5,-2,-4,1,3,-1,-9,-3,4940
-1.93291,0.129068,-1.23323,-9.3125,-113.563,204,1.88818,-0.124512,0.0517578,-4,0,-2,-1,-3,-1,-6,0,4957
-1.93452,0.208399,-1.21781,-12.125,-121.438,197.125,1.59619,0.0869141,0.107422,-3,-3,-6,0,4,0,-2,0,4974
-1.92395,0.282602,-1.19703,13.875,-135.063,196.313,1.17383,0.144043,0.168945,-5,0,-1,0,7,0,-1,1,4991
-1.90193,0.349741,-1.17132,39.375,-133.438,166.75,0.734375,0.348633,0.15918,1,-1,-1,3,-7,-6,2,0,5008
-1.87497,0.400288,-1.14499,49.4375,-112.75,118.25,0.408203,0.522949,0.163574,2,-3,0,1,3,-5,-12,-2,5025
-1.87497,0.400288,-1.14499,49.4375,-112.75,118.25,0.408203,0.522949,0.163574,4,4,6,1,-4,-1,8,0,5043
-1.85008,0.437365,-1.12062,40.4375,-89.125,78,0.228027,0.649902,0.231445,4,4,6,1,-4,-1,8,0,5060
-1.8274,0.469409,-1.09925,25.3125,-64.25,51,-0.00341797,0.748047,0.416016,-4,-4,-6,-2,1,7,0,-3,5078
-1.82012,0.440565,-1.08156,-39.125,54.5,-128.125,0.027832,0.991211,0.313477,-1,2,3,5,7,8,2,0,5162
-1.84703,0.377085,-1.09516,-61.9375,82.75,-168.813,0.234863,0.955566,0.299805,-11,4,0,6,-5,-1,-13,-9,5180
-1.87827,0.295711,-1.11414,-70.125,113.688,-203.438,0.589355,0.774414,0.15918,2,-5,-2,0,10,5,7,0,5197
-1.91162,0.184219,-1.13836,-79.25,166,-281.688,3.15039,0.514648,-0.305664,-18,-24,-10,-14,-7,-4,-22,-7,5215
-1.96491,0.0569138,-1.18345,-137.313,251.063,-294.688,3.01123,-0.976074,-0.0761719,-12,0,-7,-1,4,-2,-21,-3,5231
-1.96491,0.0569138,-1.18345,-137.313,251.063,-294.688,3.01123,-0.976074,-0.0761719,20,-4,0,3,10,5,33,1,5248
-2.00886,-0.0582773,-1.20991,-125.813,203.313,-271.563,3.73047,-1.16064,0.11377,12,5,-4,0,-1,-9,22,4,5265
-2.01324,-0.165399,-1.2302,-19.25,183.125,-253.188,3.40918,-1.19287,-0.274414,0,8,3,2,9,6,17,1,5283
-2.02657,-0.262781,-1.25228,-51.4375,177,-224.688,2.93408,-0.59375,-0.0166016,0,2,-1,3,10,6,5,0,5301
-2.02657,-0.262781,-1.25228,-51.4375,177,-224.688,2.93408,-0.59375,-0.0166016,0,2,-1,3,10,6,5,0,5317
-2.10566,-0.442155,-1.29434,-175.625,167.438,-194.563,1.90137,-0.209473,-0.0610352,2,-1,-2,-1,2,0,0,1,5335
-2.1698,-0.523285,-1.31445,-211.75,157.063,-152.563,1.62549,-0.505859,-0.234863,1,-1,-1,-7,-9,-6,-2,-3,5352
-2.21625,-0.582105,-1.33518,-165.938,133.438,-101.938,1.12891,-0.782227,-0.42334,0,-3,-2,2,-5,-6,3,-2,5369
-2.21625,-0.582105,-1.33518,-165.938,133.438,-101.938,1.12891,-0.782227,-0.42334,0,-1,0,0,-7,-2,1,0,5386
-2.23359,-0.620525,-1.35219,-78.125,97.625,-61.375,0.791504,-0.839844,-0.645996,-2,-3,0,-1,2,-4,-1,0,5403
-2.23758,-0.632542,-1.36092,-19.0625,54.25,-28.5,0.336426,-0.685547,-0.695801,-2,-1,-2,-1,-3,-5,-6,-3,5420
-2.25242,-0.503397,-1.31804,23.9375,-39.375,55,0.208008,-0.631348,-1.05273,-4,-2,0,-1,-4,-4,-1,-1,5513
-2.24796,-0.472226,-1.32266,24.9375,-41.125,83.75,0.528809,-0.588867,-0.841797,0,0,0,-2,-1,2,-1,-2,5530
-2.23456,-0.432337,-1.33505,23.125,-46.125,110.25,0.483398,-0.696289,-0.58252,0,-1,1,4,7,1,-2,-2,5547
-2.23456,-0.432337,-1.33505,23.125,-46.125,110.25,0.483398,-0.696289,-0.58252,-5,0,1,3,2,0,0,2,5564
-2.22275,-0.392524,-1.3461,18,-55.3125,116.625,1.12256,-0.842285,-0.390137,-2,-2,5,-5,-14,-6,-5,-5,5581
-2.20563,-0.344413,-1.3426,52.8125,-90.4375,104.625,2.56689,-0.916016,-0.185547,-6,-3,-4,-7,-10,0,3,-1,5597
-2.16971,-0.251582,-1.34134,103.875,-156.438,215.438,2.72607,-0.896973,-0.125977,-2,0,-1,7,23,4,-25,-1,5615
-2.12647,-0.135292,-1.32109,135.188,-229.938,248.125,3.10693,-1.28809,0.142578,12,4,4,0,-9,6,25,5,5632
-2.06091,-0.00516766,-1.29888,192.563,-241.813,291.688,2.81934,-1.2124,0.492676,1,-1,0,0,5,-1,0,-2,5649
-2.01,0.114733,-1.28332,143,-194,287.75,2.86328,-0.979004,0.309082,-10,2,-3,2,2,3,0,0,5665
-2.01,0.114733,-1.28332,143,-194,287.75,2.86328,-0.979004,0.309082,6,5,0,0,-6,-1,-6,0,5682
-1.97686,0.221574,-1.2733,90.4375,-151.5,267.813,2.46045,-0.356934,0.405273,5,-4,-5,0,-10,-4,-8,-2,5699
-1.96008,0.319348,-1.26562,42.125,-128.438,249.875,2.24268,-0.405273,0.163086,0,-2,-2,-3,1,0,-1,0,5715
-1.9558,0.409294,-1.25523,1.625,-123.313,228.25,1.72803,0.00341797,0.213867,-3,-4,-2,-3,0,-10,5,-4,5733
-1.94564,0.486281,-1.23709,3.25,-129.938,204.063,1.21045,0.0673828,0.240723,1,0,-1,0,-13,-8,3,0,5750
-1.94564,0.486281,-1.23709,3.25,-129.938,204.063,1.21045,0.0673828,0.240723,-2,-1,0,1,0,0,-7,0,5767
-1.82895,0.698886,-1.16804,83.125,-44.5,65.8125,-0.173828,0.841797,0.281738,-1,-4,-2,-3,-2,-3,2,-1,5843
-1.80701,0.735815,-1.16569,56,-12.625,37.9375,-0.288574,1.08496,0.312012,-4,0,-1,2,11,7,1,-1,5861
-1.80834,0.759233,-1.16674,-6.4375,8.3125,-6.625,-0.358887,1.19043,0.381348,1,-1,3,-1,2,1,15,1,5878
-1.82774,0.756896,-1.17074,-49.375,26.8125,-65.375,-0.17041,1.13037,0.335449,9,1,-1,2,0,-3,-1,-2,5895
-1.85667,0.716305,-1.17873,-67.6875,50.25,-117.938,0.0322266,0.984863,0.27002,-3,-1,7,-1,3,-2,-7,-2,5913
-1.89005,0.65637,-1.19056,-74.4375,78.6875,-162.875,0.211914,0.901855,0.317383,-7,-10,-4,-4,-6,-3,-1,-3,5930
-1.89005,0.65637,-1.19056,-74.4375,78.6875,-162.875,0.211914,0.901855,0.317383,-7,-10,-4,-4,-6,-3,-1,-3,5947
-1.92671,0.575342,-1.20419,-81.9375,106.938,-209,0.408203,0.656738,0.210449,-4,4,8,8,1,2,-9,2,5964
-1.97148,0.462912,-1.22221,-102.813,160.688,-283.5,1.7998,0.42334,-0.0268555,-4,4,8,8,1,2,-9,2,5982
-2.02367,0.31654,-1.24549,-124.063,230.188,-356.75,3.56299,-0.737305,-0.0478516,-15,-1,-6,-5,-11,-9,-5,-4,5999
-2.0702,0.187502,-1.27175,-114.375,234.438,-295.75,3.66699,-1.38965,0.150391,5,-1,-5,3,3,-1,2,-3,6017
-2.0733,0.0742638,-1.29061,-2.125,203.5,-258.875,3.32275,-1.45508,0.335449,7,0,2,1,-11,-4,13,-1,6034
-2.06305,-0.0260901,-1.30445,30.3125,171.75,-234.125,2.83496,-0.828125,0.0439453,-2,-2,3,3,12,-1,-21,-3,6052
-2.06305,-0.0260901,-1.30445,30.3125,171.75,-234.125,2.83496,-0.828125,0.0439453,-2,-2,3,3,12,-1,-21,-3,6068
-2.16974,-0.216068,-1.32117,-230.938,160.438,-219.563,2.23096,-0.146973,-0.0683594,5,-2,-4,-1,-10,4,-9,2,6086
-2.16974,-0.216068,-1.32117,-230.938,160.438,-219.563,2.23096,-0.146973,-0.0683594,-5,-1,-1,-3,7,3,-5,0,6103
-2.38329,-0.406089,-1.33695,-112.438,89.375,-72.0625,0.950195,-0.933105,-0.675781,-1,-1,2,-2,3,0,2,6,6165
-2.38431,-0.431206,-1.34096,-15.125,60.4375,-47.5625,0.4375,-0.846191,-0.722168,-4,0,0,2,3,-6,-15,-6,6182
-2.37515,-0.433818,-1.33443,40.0625,9.125,-27.9375,0.122559,-0.547363,-0.708984,-3,0,1,-3,0,0,-2,-6,6200
-2.36355,-0.4183,-1.32307,64.6875,-27.375,-3.75,-0.0375977,-0.422363,-0.822266,-2,-1,0,-4,-8,-5,-6,-4,6217
-2.35139,-0.392711,-1.31049,65.375,-39.875,3.25,-0.222168,-0.570313,-0.924316,-2,-1,-1,0,0,-1,-1,0,6234
-2.34381,-0.363472,-1.29825,45.3125,-42.375,2.6875,-0.364258,-0.700195,-0.905762,-1,1,2,3,1,-1,-15,-3,6252
-2.34051,-0.338272,-1.29212,29.5625,-36.75,21.1875,-0.0776367,-0.655273,-0.929199,-7,-2,-1,-4,-5,-5,-17,-2,6268
-2.34051,-0.338272,-1.29212,29.5625,-36.75,21.1875,-0.0776367,-0.655273,-0.929199,7,-2,5,1,-3,1,9,0,6285
-2.3383,-0.320503,-1.29378,25.9375,-31.25,49.1875,0.424316,-0.499023,-0.918457,-3,0,0,3,6,-3,-13,-3,6302
-2.32443,-0.296373,-1.30248,41.5625,-32.25,73.0625,0.361328,-0.546387,-0.710938,-6,-3,-3,0,7,-2,-18,-4,6320
-2.29619,-0.267806,-1.31814,50.25,-37.3125,96.8125,0.49707,-0.954102,-0.481445,15,7,2,3,7,3,7,4,6337
-2.26425,-0.262788,-1.32565,60.875,-54.5,84.5,1.51709,-1.02588,-0.37793,0,-5,-2,-7,-19,-3,26,3,6354
-2.21287,-0.204969,-1.32373,148.5,-106.75,127,2.67139,-0.890625,-0.193848,-21,0,-8,-5,-2,-4,-36,-5,6370
-2.21287,-0.204969,-1.32373,148.5,-106.75,127,2.67139,-0.890625,-0.193848,-12,-4,2,-1,-17,-4,1,-5,6387
-2.14473,-0.110487,-1.31105,201.188,-184.313,201.75,3.06299,-1.08154,0.0668945,18,-2,-5,-2,4,3,8,4,6405
-2.06873,-0.00225896,-1.28858,221.5,-214.125,234.188,3.32617,-0.88623,0.239746,-21,-4,-4,-1,-1,-6,-9,-1,6423
-1.98816,0.274193,-1.2449,41.125,-141.5,198.813,2.11865,-0.373535,0.0214844,-5,0,1,-1,0,-3,4,4,6488
-1.97292,0.355339,-1.22723,28.1875,-136.938,193.875,1.93408,-0.0717773,0.00244141,2,0,-3,-3,-5,-3,-2,0,6505
-1.94916,0.426721,-1.20342,40.1875,-143.875,185.625,1.41992,0.0317383,0.103027,0,-3,-3,-3,0,-2,-1,-1,6522
-1.91466,0.496759,-1.1734,59.9375,-147.688,174.188,1.09863,0.221191,0.113281,5,0,0,2,-2,-6,5,-2,6539
-1.87123,0.558045,-1.13899,74.875,-138.75,145.625,0.745605,0.438477,0.117188,-2,0,0,0,-12,-4,-6,-2,6556
-1.82597,0.604539,-1.10453,75.3125,-116.125,106.375,0.446289,0.566895,0.151367,-1,-3,-2,0,-2,-3,-5,0,6573
-1.82597,0.604539,-1.10453,75.3125,-116.125,106.375,0.446289,0.566895,0.151367,1,-6,-1,-1,1,-3,1,-1,6590
-1.78078,0.641547,-1.0682,60.8125,-97.0625,67.875,0.205566,0.657227,0.29248,0,-2,1,2,-1,-2,-2,-1,6608
-1.73184,0.67292,-1.02979,56.6875,-82.4375,34.75,-0.074707,0.789063,0.452637,-5,1,-1,0,-1,0,-2,-2,6625
-1.68752,0.694416,-0.998512,48.3125,-51.125,-5.375,-0.312988,0.933594,0.543457,-4,-1,1,-3,-2,1,0,-1,6642
-1.66245,0.700759,-0.982893,20.5,-10.75,-49.125,-0.353516,1.03711,0.540039,-20,-2,-1,-2,-1,-2,-5,-3,6659
-1.66555,0.687384,-0.982146,-29.1875,22.25,-87.1875,-0.134766,0.97998,0.453613,-7,-5,-3,-3,-4,-4,-2,-1,6676
-1.6978,0.645344,-0.997865,-68.75,52.6875,-121.875,0.158691,0.798828,0.408691,5,4,1,1,1,2,1,2,6693
-1.74783,0.589034,-1.01857,-111.813,74.3125,-152.688,0.375488,0.609863,0.325195,4,-7,-3,-2,4,2,-11,2,6710
-1.74783,0.589034,-1.01857,-111.813,74.3125,-152.688,0.375488,0.609863,0.325195,-15,11,1,1,6,-5,-36,-3,6727
-1.80797,0.514719,-1.04957,-125.375,115,-180.188,1.08838,0.367676,0.0751953,-7,-6,-5,-7,-14,-7,-5,-5,6745
-2.01468,0.0585686,-1.25515,-30.1875,165.25,-150.5,2.54492,-0.931152,-0.212891,-3,-3,3,3,1,-5,2,-1,6842
-2.04529,-0.00585792,-1.27398,-86.4375,130.438,-141.875,2.26758,-0.275879,-0.183105,-1,-1,-1,0,-6,-6,4,5,6859
-2.11259,-0.068255,-1.28929,-194.688,125.375,-134.75,2.0249,-0.151855,-0.370605,2,0,2,-2,-13,-3,-1,-6,6876
-2.18883,-0.129892,-1.30056,-220.188,111.875,-111.813,1.38232,-0.523438,-0.474121,3,1,1,0,2,-2,1,-5,6893
-2.24938,-0.174398,-1.31108,-179.313,92.125,-72.6875,0.968262,-0.769531,-0.539551,2,-1,-1,-2,3,2,-3,0,6911
-2.24938,-0.174398,-1.31108,-179.313,92.125,-72.6875,0.968262,-0.769531,-0.539551,-4,-2,0,-3,-3,-11,-2,-4,6928
-2.29174,-0.217941,-1.33076,-30.625,43.875,-14.25,0.283691,-0.730957,-0.644531,-3,-1,0,-1,-2,-1,-6,-3,6946
-2.29174,-0.217941,-1.33076,-30.625,43.875,-14.25,0.283691,-0.730957,-0.644531,-3,-2,-1,-3,0,-1,-5,-2,6963
-2.28872,-0.218164,-1.34,12.8125,27.5625,10.9375,0.0556641,-0.554199,-0.676758,3,0,1,-1,2,-3,-4,-6,6981
-2.27842,-0.215232,-1.34817,43.5,32.1875,3.625,-0.197754,-0.477539,-0.774902,-2,-2,-2,-3,-3,-2,1,-1,6999
-2.26995,-0.207748,-1.34859,46.1875,21.625,-16.25,-0.508789,-0.490723,-0.835938,1,3,0,0,-1,0,3,11,7016
-2.26219,-0.186193,-1.34425,45.5,-10.5625,0.3125,-0.598633,-0.598145,-0.886719,1,0,-2,-2,3,-2,-2,-6,7033
-2.26219,-0.186193,-1.34425,45.5,-10.5625,0.3125,-0.598633,-0.598145,-0.886719,-3,-2,-2,0,2,-4,5,1,7050
-2.25279,-0.126497,-1.34037,40.1875,-50.375,58.9375,0.00634766,-0.564941,-0.91748,-8,-2,-1,-2,4,-1,-12,-1,7066
-2.25279,-0.126497,-1.34037,40.1875,-50.375,58.9375,0.00634766,-0.564941,-0.91748,7,-1,4,3,-8,3,22,3,7084
-2.22768,-0.103033,-1.33941,87.6875,-50.875,62.375,0.274414,-0.549316,-0.699707,2,-5,-11,-9,1,2,-6,-2,7101
-1.97521,0.23813,-1.23879,175.563,-225.188,198.063,2.78857,-1.11328,0.311035,-3,3,1,5,3,-6,-16,-5,7195
-1.94409,0.330198,-1.20679,63.5625,-181.625,210.688,2.33545,-0.848633,0.373535,-15,4,-3,-1,-2,3,-10,0,7211
-1.94409,0.330198,-1.20679,63.5625,-181.625,210.688,2.33545,-0.848633,0.373535,-9,-3,-4,0,2,-1,-9,-1,7229
-1.85524,0.482199,-1.15159,91.625,-129.875,184.25,2.05859,-0.212891,-0.0371094,4,-6,-4,-2,2,0,-7,-2,7246
-1.85524,0.482199,-1.15159,91.625,-129.875,184.25,2.05859,-0.212891,-0.0371094,-4,-1,-1,-2,1,3,7,-1,7263
-1.8167,0.5539,-1.12176,68.25,-125.688,178.688,1.75146,0.221191,0.0561523,-7,-1,-2,1,-1,-3,-8,-1,7281
-1.77513,0.612861,-1.08352,58.4375,-130.25,159.563,1.28809,0.270508,0.0478516,1,0,-2,0,2,1,-4,0,7298
-1.72113,0.664745,-1.02926,60.375,-149.563,132.688,0.844238,0.236816,0.125,5,7,0,-3,0,2,3,1,7316
-1.65476,0.701924,-0.967615,78.125,-148.625,94.625,0.728516,0.400391,0.0673828,-19,-12,-3,-3,-3,-3,-11,-2,7333
-1.65476,0.701924,-0.967615,78.125,-148.625,94.625,0.728516,0.400391,0.0673828,1,10,4,-1,1,1,4,1,7349
-1.58683,0.728672,-0.909649,83.375,-127,69.75,0.566406,0.697754,0.194824,7,2,0,0,-10,-1,2,0,7366
-1.52269,0.751582,-0.854724,69.6875,-108.188,59.3125,0.065918,0.741211,0.60498,2,-5,-2,-2,-6,1,-7,-1,7383
-1.45619,0.777962,-0.797766,33.6875,-73.75,27.5,-0.336914,0.850098,0.819336,4,-4,-1,0,3,2,4,2,7400
-1.43016,0.795489,-0.772128,-24.25,-7.25,-16.375,-0.508301,0.999023,0.85498,-10,-8,-5,-4,-3,-5,-6,-2,7417
-1.44533,0.795403,-0.782452,-60.3125,51.875,-64.1875,-0.20166,1.06348,0.668457,10,-1,-2,-3,-5,-3,4,1,7435
-1.51081,0.765661,-0.833324,-91.9375,100.563,-105.563,0.206055,1.14648,0.461914,-11,-14,-4,-3,-5,-3,-1,2,7452
-1.82227,0.546181,-1.02954,-244.25,220.063,-273.938,2.83936,0.407227,-0.585449,-47,-11,-18,-7,-1,-13,-50,-9,7518
-1.92707,0.419445,-1.09318,-215.563,263.25,-298.938,3.47266,-0.942383,-0.256348,10,-1,-4,2,1,2,17,0,7535
-1.98128,0.294634,-1.13243,-116.063,232.063,-292.313,4.10791,-1.0918,-0.184082,5,0,-6,-6,5,5,4,-5,7552
-1.99552,0.179859,-1.16862,-16.3125,225.688,-259.875,3.56494,-1.1333,-0.532715,9,11,2,2,5,-7,0,-2,7569
-1.99552,0.179859,-1.16862,-16.3125,225.688,-259.875,3.56494,-1.1333,-0.532715,0,-2,2,4,-2,-9,-4,-5,7585
-1.99478,0.0784814,-1.19421,11.375,185.938,-235.188,3.21582,-0.743164,-0.330078,4,-1,5,3,0,1,0,0,7602
-2.00712,-0.00869154,-1.2141,-33.125,155.875,-203.063,2.65332,-0.264648,-0.291992,8,3,6,1,1,1,14,10,7620
-2.06132,-0.0821332,-1.22505,-157,122.313,-174.75,2.09668,-0.123047,-0.433105,-4,-2,3,3,-4,-3,-4,-5,7637
-2.14532,-0.146484,-1.23397,-240.75,105,-127.875,1.32178,-0.466797,-0.5,-1,1,1,1,3,2,-3,-4,7654
-2.22019,-0.189185,-1.24097,-218.25,78.8125,-77.9375,0.969727,-0.758301,-0.536133,1,-3,0,-4,-14,-7,3,0,7671
-2.281,-0.219023,-1.25235,-182.688,75.5625,-43.1875,0.505371,-0.904297,-0.646973,0,-1,2,-1,-4,2,-10,2,7688
-2.281,-0.219023,-1.25235,-182.688,75.5625,-43.1875,0.505371,-0.904297,-0.646973,-3,0,0,-1,1,-2,-6,-6,7705
-2.31754,-0.234823,-1.26625,-115.375,58.5625,-7.875,0.246582,-0.77002,-0.585449,7,1,0,1,1,-4,10,6,7723
-2.32533,-0.234853,-1.2816,-34.4375,37.5,21.9375,0.0874023,-0.703125,-0.621582,0,-1,1,1,1,-1,1,-2,7740
-2.3152,-0.223029,-1.29242,27.1875,16.5,28.125,-0.129883,-0.677246,-0.729492,-3,-1,1,0,0,0,4,-1,7757
-2.3152,-0.223029,-1.29242,27.1875,16.5,28.125,-0.129883,-0.677246,-0.729492,-2,-2,0,-3,-3,0,-2,-2,7774
-2.27243,-0.146597,-1.28889,59.875,-42.4375,51.875,-0.0273438,-0.675781,-1.09766,-9,-1,-4,0,-5,-5,-16,-5,7820
-2.2613,-0.11577,-1.29273,61,-48.75,81.4375,0.202637,-0.541992,-1.01025,1,-2,-2,-1,-1,0,-6,-5,7837
-2.23775,-0.0758019,-1.30137,68.8125,-54.25,107.063,0.23584,-0.554199,-0.740723,3,1,-6,-4,11,1,-4,2,7854
-2.21938,-0.0371367,-1.31217,51.3125,-51.6875,117.313,0.8125,-0.666992,-0.519531,-15,-3,-3,-5,-13,-10,-9,-2,7871
-2.21938,-0.0371367,-1.31217,51.3125,-51.6875,117.313,0.8125,-0.666992,-0.519531,-1,0,1,2,-2,6,-9,3,7888
-2.19611,0.00998713,-1.30819,66.75,-89.375,101.813,2.20117,-0.677734,-0.370117,6,1,1,-7,-10,-5,17,2,7905
-2.16445,0.0956599,-1.30158,89.875,-156.188,190.188,2.77441,-0.922363,-0.224121,-13,2,-1,-2,4,0,-21,-1,7921
-2.10359,0.199526,-1.27544,163.25,-221.875,212.438,3.32471,-1.20801,0.266602,20,2,-2,-10,-18,-2,46,7,7938
-2.00692,0.310973,-1.24036,251.75,-235.438,237.438,3.29443,-1.10742,0.408203,-6,-2,2,6,9,4,-10,-4,7955
-2.00692,0.310973,-1.24036,251.75,-235.438,237.438,3.29443,-1.10742,0.408203,-6,-2,2,6,9,4,-10,-4,7971
-1.95765,0.409716,-1.21147,112.188,-184.375,228.438,2.65381,-0.708008,0.472656,-3,-3,-1,0,-2,-1,2,-2,7988
-1.91342,0.489019,-1.1858,94.5,-142.75,188.938,2.15332,-0.347168,0.225098,-2,2,-4,-3,15,12,-2,-2,8005
-1.887,0.563523,-1.16014,38.6875,-129.563,181.438,2.1709,-0.401367,0.00439453,-1,-1,-1,0,2,2,-10,-6,8022
-1.86995,0.634161,-1.13511,8.375,-117.75,174.813,1.7373,0.0366211,0.101074,-7,-2,-2,0,-7,2,0,-5,8039
-1.84114,0.700038,-1.10105,20.0625,-128.5,171.813,1.18359,0.240234,0.206055,0,6,1,-1,3,2,-7,-6,8056
-1.79261,0.762704,-1.05696,54.875,-137.125,158.063,1.01025,0.463867,0.0830078,4,-4,1,1,2,-3,4,-1,8073
-1.60217,0.883899,-0.891138,40.625,-101.875,55.5,-0.012207,0.855469,0.365234,2,13,6,1,1,-5,7,0,8137
-1.5353,0.912252,-0.831623,35.1875,-77.4375,18.5,-0.231445,0.977539,0.53418,-8,-6,-1,-3,-7,-8,-7,0,8154
-1.48736,0.927201,-0.792331,19.1875,-32.1875,-19,-0.319824,0.970215,0.625977,-1,-4,0,2,8,4,5,0,8172
-1.48736,0.927201,-0.792331,19.1875,-32.1875,-19,-0.319824,0.970215,0.625977,-2,-7,-3,-5,0,0,7,3,8189
-1.47262,0.924494,-0.777348,-20.25,6.375,-61.375,-0.202148,0.87207,0.61377,1,9,4,8,10,4,-12,0,8206
-1.51364,0.891758,-0.809972,-50,57.0625,-106.25,0.154297,0.745605,0.537109,6,-6,1,-3,-7,-7,2,-4,8222
-1.57044,0.847677,-0.859261,-59.6875,93.0625,-133.813,0.359863,0.714355,0.42334,4,-1,-3,-6,-13,0,17,0,8239
-1.64436,0.79163,-0.917246,-91.75,120.813,-158,0.646484,0.734375,0.193359,3,3,-7,3,11,4,-9,3,8256
-1.74139,0.709351,-0.991037,-134,182.25,-214.938,2.12598,0.529297,-0.0488281,9,5,2,3,-13,2,11,4,8273
-1.84421,0.596781,-1.06811,-160.375,242.875,-276.063,3.03418,-0.541504,-0.318359,-1,-13,2,-3,-1,-1,12,-2,8289
-1.84421,0.596781,-1.06811,-160.375,242.875,-276.063,3.03418,-0.541504,-0.318359,3,-1,-4,-1,12,13,0,2,8307
-1.93986,0.477017,-1.12733,-187.188,246.875,-280.063,3.60303,-0.825195,-0.0893555,6,-4,-1,3,8,-9,3,1,8324
-1.99002,0.353547,-1.16939,-94.9375,238.313,-284.563,3.74902,-0.741699,-0.426758,3,3,4,3,23,20,-1,-1,8342
-2.02202,0.235821,-1.20439,-62.4375,229.25,-265.813,3.77051,-0.719238,-0.386719,-1,0,0,0,-13,-11,-3,-1,8359
-2.03509,0.128763,-1.23229,-23,206.313,-240.625,3.28418,-0.542969,-0.557617,2,-3,3,5,9,-3,3,-1,8376
-2.03509,0.128763,-1.23229,-23,206.313,-240.625,3.28418,-0.542969,-0.557617,-1,2,1,0,1,3,-4,1,8393
-2.20431,-0.0985822,-1.24441,-232.563,83.3125,-138.938,1.01172,-0.523438,-0.483398,8,0,-1,-1,-4,-5,12,7,8447
-2.26676,-0.148917,-1.24447,-180.75,82.4375,-105.438,0.750977,-0.714844,-0.464844,-3,-2,-2,-7,-3,2,1,2,8464
-2.30545,-0.185234,-1.24466,-112.813,66,-75.6875,0.383789,-0.771484,-0.576172,0,-1,2,-1,8,-8,-6,-3,8482
-2.31707,-0.199873,-1.24439,-36.8125,34.1875,-39.75,0.0615234,-0.79834,-0.661133,2,0,0,-1,-1,-3,7,-3,8500
-2.30972,-0.194032,-1.24188,21.125,0.8125,-12,-0.159668,-0.831055,-0.72998,-3,1,0,-7,-5,-5,5,3,8517
-2.2984,-0.180374,-1.23499,43.9375,-17.5625,-7.1875,-0.271484,-0.750977,-0.820313,-4,0,1,2,2,1,-11,-6,8534
-2.28569,-0.160652,-1.22706,52.25,-28.5,1.9375,-0.321289,-0.816406,-0.938477,-1,-3,-4,-5,-9,6,3,14,8551
-2.28569,-0.160652,-1.22706,52.25,-28.5,1.9375,-0.321289,-0.816406,-0.938477,-1,-4,-3,-2,1,16,13,5,8569
-2.27226,-0.143867,-1.22811,52.4375,-17.125,27.625,-0.0249023,-0.932129,-1.05225,-8,-3,2,1,-2,-11,-10,-16,8587
-2.26245,-0.123475,-1.2346,44.1875,-29.0625,67,0.311523,-0.734375,-0.952148,-6,8,-2,2,-1,-8,-26,-7,8604
-2.24639,-0.0793715,-1.2441,45.3125,-59.8125,116.875,0.201172,-0.599609,-0.625977,6,0,-3,-2,-8,-7,19,-1,8621
-2.23047,-0.0242372,-1.25531,42.125,-77.25,149.688,0.427246,-0.76709,-0.477539,-2,-1,-13,0,9,-2,-10,-4,8639
-2.2101,0.0266211,-1.26631,58.25,-62.9375,135.063,1.55811,-0.780273,-0.304688,3,-3,6,2,-7,-9,-20,-6,8657
-2.15786,0.0972058,-1.27649,151.438,-92.75,182,2.82959,-0.716309,-0.187988,9,-5,-7,-3,0,5,10,2,8675
-2.15786,0.0972058,-1.27649,151.438,-92.75,182,2.82959,-0.716309,-0.187988,-15,9,-3,6,27,1,-31,-9,8692
-2.10451,0.205797,-1.27555,152.813,-167.875,262.188,3.06885,-0.900391,-0.0185547,4,-4,-5,3,6,1,32,8,8709
-1.88974,0.713374,-1.18065,39.875,-138.375,212.313,2.04004,0.140625,0.0693359,-5,-1,-2,-2,-4,1,1,-4,8808
-1.84539,0.795054,-1.14211,49.4375,-147.313,211.875,1.34668,0.315918,0.216797,-1,-1,-2,-3,0,0,0,0,8825
-1.78273,0.867459,-1.09182,71.875,-144.063,182,0.868164,0.370117,0.202637,3,-1,-2,-2,-6,0,5,-1,8842
-1.71873,0.921635,-1.03734,60.5,-122.75,134.5,0.568359,0.486816,0.160156,4,-2,1,-1,-3,-1,-2,-2,8859
-1.65693,0.963376,-0.981191,44.875,-104.5,103.875,0.37793,0.556641,0.236328,5,6,1,-1,-1,-3,-1,0,8876
-1.58632,1.00345,-0.918245,39.8125,-85.4375,70.375,0.13916,0.769531,0.356934,-5,-7,0,-1,-2,0,7,1,8894
-1.5187,1.03131,-0.859226,34.375,-63.125,24.1875,-0.157227,0.878418,0.416992,-2,-2,-3,-1,6,2,2,-1,8911
-1.5187,1.03131,-0.859226,34.375,-63.125,24.1875,-0.157227,0.878418,0.416992,2,-2,1,0,-13,-11,9,1,8928
-1.46437,1.04786,-0.81189,18.75,-35.75,-10.125,-0.249512,0.916016,0.501465,-4,-3,-1,0,-1,-4,-7,-3,8944
-1.44166,1.0528,-0.793115,-4.0625,6.6875,-47.5625,-0.192871,0.978516,0.544922,-6,-3,-1,-1,-3,-3,-3,1,8962
-1.46118,1.04035,-0.809555,-36.375,49.125,-94.5625,0.0268555,0.987793,0.506836,3,5,-2,0,0,-3,-13,0,8979
-1.53431,0.998455,-0.86619,-75.5,81.8125,-138.125,0.273926,0.994141,0.414551,6,2,-1,-5,-9,3,29,3,8996
-1.6201,0.941343,-0.927616,-103.313,104.688,-171.25,0.443848,0.915527,0.313965,-9,2,1,-7,2,6,-10,-3,9012
-1.72075,0.862303,-0.996573,-133.625,144.188,-207.313,1.20215,0.580078,0.118164,4,3,-5,-1,6,-8,-37,-2,9031
-1.72075,0.862303,-0.996573,-133.625,144.188,-207.313,1.20215,0.580078,0.118164,7,-4,5,5,5,-3,2,0,9047
-1.82699,0.755232,-1.06373,-164.938,192.188,-274.125,3.63965,0.159668,-0.265137,13,21,5,-7,1,4,-10,4,9064
-2.16639,0.135223,-1.25625,-149.938,139.063,-174.875,2.03809,-0.333008,-0.527344,-7,-4,-3,0,5,4,-11,-3,9180
-2.24058,0.070134,-1.25555,-210.813,96.8125,-135.875,1.09375,-0.470703,-0.520996,6,-2,1,0,1,-3,4,-1,9197
-2.30502,0.0262336,-1.25499,-185.188,72.625,-88.5,0.651367,-0.669434,-0.582031,6,-1,2,-4,-3,1,-6,2,9214
-2.30502,0.0262336,-1.25499,-185.188,72.625,-88.5,0.651367,-0.669434,-0.582031,2,-3,1,-4,-13,-12,-2,6,9231
-2.34481,-0.00922049,-1.25543,-115.188,65.6875,-68,0.41748,-0.834473,-0.714844,1,0,4,-1,-6,-8,-5,0,9248
-2.35803,-0.0270962,-1.25629,-46.1875,32,-29,0.143555,-0.942871,-0.777344,-6,-3,-2,-2,1,-1,-7,-3,9265
-2.34122,-0.0206983,-1.2582,42.3125,-5.75,13.125,-0.0454102,-0.909668,-0.773438,-1,0,3,3,11,0,-4,-8,9282
-2.31855,-0.000651121,-1.25358,74.625,-40,23.25,-0.18457,-0.675293,-0.8125,-2,-1,-2,-3,-6,0,16,5,9299
-2.30677,0.0270621,-1.24367,52.4375,-65.375,28.6875,-0.222656,-0.574219,-0.882813,0,-1,-5,-4,-3,-3,-1,3,9317
-2.3,0.0522124,-1.24292,33.75,-53.5625,55.4375,0.00292969,-0.743652,-0.937988,-3,-2,-3,-4,2,0,15,3,9335
-2.3,0.0522124,-1.24292,33.75,-53.5625,55.4375,0.00292969,-0.743652,-0.937988,13,-5,1,0,-3,2,11,4,9352
-2.28311,0.112454,-1.26687,35.125,-50.25,113.938,0.307617,-0.735352,-0.764648,11,8,7,-2,-10,-5,14,-1,9369
-2.28311,0.112454,-1.26687,35.125,-50.25,113.938,0.307617,-0.735352,-0.764648,7,-3,-4,-3,-2,5,6,2,9385
-2.27215,0.16028,-1.27827,34.8125,-73,135.25,0.627441,-0.782715,-0.597656,4,1,5,-1,-20,-4,19,0,9403
-2.25364,0.214012,-1.2842,56.3125,-85.375,129.25,1.66846,-0.806152,-0.379883,2,-4,2,-4,-9,-3,1,-7,9420
-2.21296,0.286577,-1.29086,121.313,-113.375,175.5,2.88916,-0.878418,-0.294922,-2,-2,-1,-5,5,4,-16,-3,9437
-1.99953,0.609979,-1.23718,162.688,-176.875,234.313,2.74072,-1.13965,0.0600586,1,1,3,6,4,-6,-8,-6,9508
-1.96215,0.694617,-1.21802,73.875,-136.938,204.75,2.07813,-0.420898,0.347656,-7,-7,-5,-4,8,5,-8,-2,9525
-1.92605,0.769414,-1.19421,57.5625,-125.5,181.125,2.12891,-0.333008,-0.0380859,-2,0,-3,-1,-9,-8,2,-1,9542
-1.89842,0.84152,-1.16595,20.875,-121.938,175.75,1.9375,0.130859,0.0463867,2,-2,0,-1,-4,-4,5,0,9559
-1.85327,0.908896,-1.12298,34.625,-136.188,170,1.36963,0.308594,0.101074,-12,-8,-3,-4,8,11,-11,-1,9577
-1.78078,0.971538,-1.06017,61.125,-146,151.25,0.825195,0.359375,0.162109,0,-4,0,1,0,-1,-4,-3,9594
-1.69642,1.01893,-0.985566,61.8125,-136.438,112.813,0.522461,0.408203,0.106445,-1,-6,-3,-2,1,-4,-5,-2,9611
-1.69642,1.01893,-0.985566,61.8125,-136.438,112.813,0.522461,0.408203,0.106445,-5,-9,0,0,-2,4,0,0,9628
-1.61474,1.05448,-0.906063,36.25,-120.688,86.9375,0.345703,0.519531,0.237305,-2,-3,-5,-4,-22,-10,5,-2,9645
-1.51029,1.08313,-0.813883,52.25,-98.75,53.75,0.0952148,0.53125,0.455566,-5,-1,-1,-1,4,2,4,-2,9662
-1.41389,1.09806,-0.730108,44,-72.5625,15.1875,-0.168457,0.55957,0.553711,9,12,6,3,-6,-3,3,1,9679
-1.33751,1.10623,-0.667662,35.4375,-37.75,-16.625,-0.248047,0.779297,0.624023,-8,0,6,0,0,4,-5,-1,9696
-1.33751,1.10623,-0.667662,35.4375,-37.75,-16.625,-0.248047,0.779297,0.624023,-6,3,-3,-5,-3,-2,-4,-3,9712
-1.29848,1.1138,-0.643971,20.75,21.3125,-40.625,-0.206055,1.03076,0.756836,7,-3,0,-3,-3,-1,2,3,9728
-1.32479,1.11459,-0.671807,-30.5,71.625,-79.0625,-0.165527,1.0957,0.624512,-7,-8,-3,6,3,-7,-59,-9,9745
-1.44127,1.08115,-0.769212,-89.8125,113.25,-133.438,0.153809,1.13916,0.408691,-3,-2,-6,-2,8,3,10,-2,9763
-1.81435,0.83768,-1.05529,-146.75,210.75,-267.063,3.34424,-0.312012,-0.347168,6,2,4,-5,1,2,23,3,9821
-1.91638,0.724659,-1.11991,-161.625,220.313,-271.75,3.21826,-0.90332,-0.0878906,-6,-1,-5,-1,2,-2,-1,-6,9838
-1.97058,0.61747,-1.16461,-75.5625,205.188,-250.25,3.58008,-0.921875,-0.138672,22,3,2,4,-1,-1,37,4,9855
-1.97058,0.61747,-1.16461,-75.5625,205.188,-250.25,3.58008,-0.921875,-0.138672,22,3,2,4,-1,-1,37,4,9871
-2.01093,0.513144,-1.20263,-57.125,206.188,-235.5,3.54541,-0.635742,-0.473145,-9,5,0,2,-4,-2,1,-6,9888
-2.05204,0.4212,-1.22832,-84.6875,176.125,-206.563,3.03467,-0.533203,-0.326172,-5,2,-2,2,-4,-6,-15,3,9905
-2.1087,0.339347,-1.24341,-146.25,149.25,-185.563,2.3501,-0.462891,-0.35791,-7,0,-3,-1,-2,4,-5,4,9922
-2.18215,0.268124,-1.24938,-205.625,124.75,-162.313,1.74316,-0.396973,-0.366211,6,-2,-1,1,8,8,2,7,9939
-2.24964,0.203261,-1.25378,-192.625,107.875,-122.625,1.2085,-0.69043,-0.381348,2,-3,1,2,-21,-8,28,4,9956
-2.29554,0.152084,-1.26099,-130,100.688,-86.5625,0.804199,-0.623535,-0.413086,2,-2,-2,0,38,6,-10,0,9973
-2.29554,0.152084,-1.26099,-130,100.688,-86.5625,0.804199,-0.623535,-0.413086,5,-4,3,-6,10,-3,7,-7,9990
-2.31651,0.102187,-1.26953,-56.125,85.5625,-58.4375,0.500977,-0.71875,-0.672852,9,2,1,-1,-21,18,-12,-1,10006
-2.31491,0.0834127,-1.27821,10.125,46.9375,-15.1875,0.0581055,-0.815918,-0.814453,-10,-2,0,1,7,5,-11,-11,10023
-2.28447,0.0896562,-1.2755,95.8125,-14.25,3.3125,-0.206055,-0.94873,-0.997559,-8,-1,-2,-4,4,1,-6,1,10040
-2.26025,0.101267,-1.26135,95.375,-48.3125,-9.75,-0.280762,-0.824219,-1.21875,0,0,1,3,-5,-11,-8,-8,10057
-2.26025,0.101267,-1.26135,95.375,-48.3125,-9.75,-0.280762,-0.824219,-1.21875,-2,-6,-2,-7,-8,5,0,0,10074
-2.21703,0.344224,-1.2496,79.8125,-119,129.938,2.12793,-1.04004,-0.357422,-4,-11,-8,-5,-4,-2,4,3,10177
-2.1739,0.438237,-1.25471,129.375,-146.625,226.313,2.88721,-0.719727,-0.243164,-4,-6,-7,-17,-4,9,-1,1,10194
-2.11062,0.539724,-1.23933,160.563,-190.313,224.063,3.01807,-0.99707,-0.0283203,10,-4,-8,1,5,7,-17,-2,10211
-2.11062,0.539724,-1.23933,160.563,-190.313,224.063,3.01807,-0.99707,-0.0283203,15,0,-5,-1,-21,-7,47,5,10227
-2.06405,0.634521,-1.22624,112.563,-161.375,220.688,2.80713,-1.12695,-0.0942383,-10,-3,-4,0,8,2,-14,1,10245
-2.03774,0.72062,-1.21126,48.5,-143.813,203.188,2.44922,-0.851563,0.152344,-6,-3,-4,-3,8,23,-20,-8,10263
-2.03774,0.72062,-1.21126,48.5,-143.813,203.188,2.44922,-0.851563,0.152344,5,-9,1,0,2,-8,16,-5,10280
-1.92452,0.864842,-1.15458,106.938,-130.188,161.25,2.31152,-0.0512695,-0.0561523,4,1,4,5,7,4,18,-3,10297
-1.92452,0.864842,-1.15458,106.938,-130.188,161.25,2.31152,-0.0512695,-0.0561523,4,-2,-2,-4,-25,-9,11,-2,10314
-1.78424,0.9923,-1.05532,81.25,-138.25,150.75,1.03271,0.290039,0.172363,-4,1,-3,0,-3,-8,-6,0,10331
-1.78424,0.9923,-1.05532,81.25,-138.25,150.75,1.03271,0.290039,0.172363,2,-1,-4,1,1,1,-11,-4,10348
-1.68738,1.04094,-0.975834,82.875,-139.375,119.125,0.835449,0.416992,0.162598,0,2,1,-3,-2,-8,1,0,10366
-1.57812,1.07861,-0.885084,84.1875,-129.938,97.25,0.693848,0.539551,0.257813,-2,-4,-3,-1,2,-2,0,-1,10383
-1.46045,1.10447,-0.784211,77.3125,-123.625,74.5625,0.230469,0.537598,0.339844,0,0,1,-3,-3,-10,3,0,10400
-1.35591,1.11334,-0.688758,50.25,-109.313,34,0.0200195,0.705566,0.436523,4,2,0,-1,2,0,-5,0,10417
-1.25504,1.12002,-0.597066,30.1875,-73.0625,-9.0625,-0.138672,0.864258,0.557617,-3,-11,-2,-2,6,2,0,-1,10434
-1.24197,1.08286,-0.573232,-69,46.6875,-109.938,0.0922852,0.789063,0.530762,-3,2,-2,2,-15,-11,-15,-5,10494
-1.24197,1.08286,-0.573232,-69,46.6875,-109.938,0.0922852,0.789063,0.530762,-5,-17,-3,-4,-6,-2,16,2,10511
-1.34412,1.04328,-0.659514,-82.3125,92.125,-150.813,0.40918,0.833496,0.461426,7,-8,-2,4,13,4,-16,-3,10528
-1.46116,0.990967,-0.753132,-110.188,118.063,-176.188,0.585938,0.737305,0.230469,-13,4,-4,-3,2,2,2,0,10544
-1.6023,0.918083,-0.858924,-156.875,167.125,-215.375,2.03955,0.46582,-0.103516,20,13,3,-3,-8,-2,32,4,10560
-1.6023,0.918083,-0.858924,-156.875,167.125,-215.375,2.03955,0.46582,-0.103516,-16,-13,-5,-14,5,12,-3,0,10577
-1.75068,0.820088,-0.968953,-183.938,232.188,-258.125,3.34033,-0.18457,-0.243164,-16,6,-4,-1,-5,-4,-15,-8,10595
-1.87645,0.708219,-1.04901,-201.5,238.563,-271.313,3.53174,-0.835938,-0.26416,-3,-3,-8,-9,-13,4,5,-5,10611
-1.94946,0.597315,-1.10719,-107.875,231.563,-255.188,4.04492,-0.841797,-0.518066,1,2,2,0,2,-1,3,-4,10629
-2.00396,0.491343,-1.15359,-87.0625,224.5,-234.125,3.47754,-0.724121,-0.498535,2,4,-1,8,-2,-11,-3,-3,10646
-2.03523,0.400749,-1.18399,-52.125,183.25,-200.063,2.85059,-0.615723,-0.556152,-2,-1,-1,2,-4,-8,-8,4,10664
-2.0716,0.322429,-1.20021,-87.625,142.938,-178.625,2.21387,-0.189453,-0.477051,0,-2,-2,1,-1,2,2,0,10681
-2.12754,0.256568,-1.20688,-155.063,111.063,-153.938,1.604,-0.225586,-0.498047,3,1,0,0,-3,-4,14,9,10698
-2.19313,0.202152,-1.21143,-181.813,84.9375,-105.875,1.06006,-0.49707,-0.583008,-4,-3,0,-3,-4,-1,-12,-6,10715
-2.19313,0.202152,-1.21143,-181.813,84.9375,-105.875,1.06006,-0.49707,-0.583008,-7,-1,-3,-4,-2,3,-5,-8,10733
-2.24559,0.165244,-1.2151,-149.375,64.625,-67.25,0.635742,-0.746582,-0.529297,-3,0,1,0,-7,-5,2,1,10750
-2.28347,0.12645,-1.22484,28.375,-1.6875,13.9375,-0.137695,-0.780762,-0.73877,-3,-3,-1,-5,1,-3,-2,-9,10810
-2.26858,0.138068,-1.22504,56.625,-16.25,16.9375,-0.288086,-0.705566,-0.850586,-2,-2,-3,-4,-12,0,2,6,10828
-2.25189,0.155244,-1.22376,64.125,-30.6875,27.4375,-0.303711,-0.749512,-0.912598,-1,0,1,-1,6,3,1,-3,10846
-2.24047,0.17105,-1.2262,54.25,-34.25,48.3125,-0.0107422,-0.755859,-0.977539,6,-1,-1,1,5,0,-9,-7,10863
-2.23225,0.191861,-1.23306,47.5625,-43.375,80.125,0.246582,-0.601074,-0.843262,-6,0,-3,-3,-4,-9,-14,0,10880
-2.21437,0.236092,-1.2395,58,-67,116.625,0.20166,-0.560547,-0.619141,8,-5,0,-7,-10,2,20,2,10898
-2.21437,0.236092,-1.2395,58,-67,116.625,0.20166,-0.560547,-0.619141,1,-4,4,3,-3,-2,5,-2,10913
-2.19796,0.285495,-1.2478,52.0625,-73.6875,139.563,0.60498,-0.754883,-0.469727,-6,0,0,-4,-21,-9,14,-1,10931
-2.17427,0.335812,-1.25554,74.6875,-66.125,130,2.06934,-0.82666,-0.29541,17,-7,3,2,-15,3,32,2,10949
-2.13577,0.420539,-1.26309,118.188,-117.063,213.5,2.64258,-0.747559,-0.197266,-8,-2,2,3,10,3,-18,-2,10966
-2.07175,0.519426,-1.24885,165.063,-175.938,225.375,3.03711,-0.907715,0.00976563,15,-1,-4,-2,-10,-1,26,7,10983
-2.00388,0.618895,-1.23261,169.438,-163.25,237.188,3.08838,-1.02441,0.043457,-6,-1,-2,-3,-2,-5,14,3,11000
-1.96506,0.705566,-1.2133,76.875,-139.938,210.313,2.71924,-0.928223,0.133301,2,5,0,6,-1,-7,-9,-4,11017
-1.92105,0.782882,-1.18617,73.625,-134.125,185,2.24609,-0.687012,0.302246,5,1,-1,-2,8,-3,2,3,11034
-1.92105,0.782882,-1.18617,73.625,-134.125,185,2.24609,-0.687012,0.302246,2,-4,0,-2,-15,-5,5,-5,11051
-1.8644,0.853342,-1.1499,86.3125,-131.313,169,2.2627,-0.29541,0.0556641,2,-1,-1,0,-5,5,6,0,11069
-1.58104,1.08637,-0.900039,58.25,-109.188,108.563,0.504395,0.337402,0.239746,1,-1,0,-1,-2,1,0,-2,11134
-1.58104,1.08637,-0.900039,58.25,-109.188,108.563,0.504395,0.337402,0.239746,-1,-3,1,1,-3,-3,-3,-1,11151
-1.48689,1.12203,-0.817869,51.875,-87.4375,91.9375,0.39502,0.41748,0.223145,-4,0,-3,-5,-30,-12,-4,-4,11169
-1.38557,1.15592,-0.730487,52.0625,-71.5,74.1875,0.137695,0.630859,0.297852,-6,0,2,2,4,1,-2,-2,11187
-1.28983,1.18078,-0.649401,46.9375,-52.0625,40.375,-0.13916,0.741211,0.32373,4,0,-2,0,13,26,9,1,11204
-1.28983,1.18078,-0.649401,46.9375,-52.0625,40.375,-0.13916,0.741211,0.32373,4,0,-2,0,13,26,9,1,11220
-1.17554,1.21015,-0.55729,17.6875,9.4375,-26.25,-0.244629,0.970215,0.404785,-9,-2,-3,-8,-5,-1,-1,2,11237
-1.18061,1.21025,-0.567258,-6.75,37.8125,-63.9375,-0.0273438,0.938477,0.445801,0,-4,0,-1,-6,-5,3,-2,11254
-1.18061,1.21025,-0.567258,-6.75,37.8125,-63.9375,-0.0273438,0.938477,0.445801,-6,-2,1,-7,0,6,3,1,11272
-1.26436,1.18818,-0.647198,-30.9375,63.5,-103.375,0.200195,1.03955,0.419434,14,2,4,9,5,-7,24,-1,11289
-1.37273,1.15119,-0.743238,-60.5,82.375,-144.25,0.304688,1.07471,0.296875,-14,-4,-12,10,15,-11,-43,-6,11306
-1.51335,1.08032,-0.866167,-86.8125,128.188,-220.625,1.24023,0.887207,0.0429688,-10,-3,-8,-8,-36,-7,29,2,11323
-1.67509,0.960903,-0.984187,-174.563,184.75,-337.875,3.5249,-0.148926,-0.32959,-7,-5,-5,-8,-14,-2,-11,-1,11340
-1.67509,0.960903,-0.984187,-174.563,184.75,-337.875,3.5249,-0.148926,-0.32959,-7,-5,-5,-8,-14,-2,-11,-1,11356
-1.81818,0.847341,-1.07131,-213.5,209.313,-293.875,3.23389,-1.00342,-0.0458984,16,-2,0,-9,-13,-5,32,0,11373
-1.91758,0.736848,-1.13129,-162.563,208.688,-267.375,3.96875,-1.12207,-0.0532227,5,0,2,-7,-2,1,7,0,11390
-2.20906,0.384217,-1.23605,-179.188,97,-87.25,1.10156,-0.647949,-0.353516,1,-2,1,-4,-7,-1,2,0,11490
-2.26419,0.344344,-1.24605,-149.063,81.3125,-59.3125,0.788574,-0.673828,-0.458008,0,-1,0,-3,-1,0,-1,0,11507
-2.30571,0.317363,-1.25771,-109.375,67.3125,-28.9375,0.419922,-0.65918,-0.485352,0,-1,-1,-2,-3,-1,7,1,11524
-2.33431,0.297858,-1.26872,-75.75,41.4375,1.1875,0.175293,-0.632324,-0.533203,-6,-1,0,-2,2,0,5,-6,11541
-2.35308,0.291594,-1.281,-41,23.1875,22.875,0.015625,-0.573242,-0.623535,8,-1,-1,-4,6,9,20,16,11558
-2.35928,0.296679,-1.2918,0.0625,2.625,35.5,-0.180176,-0.61377,-0.803711,-3,0,-1,-1,-5,-6,-8,-12,11576
-2.35928,0.296679,-1.2918,0.0625,2.625,35.5,-0.180176,-0.61377,-0.803711,-1,-2,0,-2,7,3,-3,-1,11593
-2.35166,0.307921,-1.29713,39.6875,-15.625,30.3125,-0.358887,-0.676758,-0.947754,2,-4,-1,-4,-3,4,20,1,11610
-2.33695,0.316227,-1.30019,67.6875,-24.1875,26,-0.237793,-0.677246,-1.12305,-3,-1,1,-2,-1,-1,-6,-10,11628
-2.32173,0.322022,-1.30491,83.6875,-33.0625,36.375,0.0546875,-0.58252,-1.271,1,-1,-4,-3,-12,-4,22,0,11644
-2.30701,0.337235,-1.30938,76.5625,-56.125,63.625,0.283691,-0.412598,-0.992188,-5,1,-5,0,-1,-5,-19,0,11661
-2.30701,0.337235,-1.30938,76.5625,-56.125,63.625,0.283691,-0.412598,-0.992188,-6,3,8,4,-6,-3,9,-3,11678
-2.28071,0.373641,-1.32571,31.5625,-53.875,94.6875,0.577148,-0.760742,-0.52832,2,-1,14,-1,-3,0,24,-1,11695
-2.28071,0.373641,-1.32571,31.5625,-53.875,94.6875,0.577148,-0.760742,-0.52832,1,-3,11,-1,-12,-4,14,-5,11711
-2.25951,0.417179,-1.31937,53.8125,-93.375,84.75,2.20459,-0.855469,-0.501953,-18,-6,-1,3,11,-7,-25,-6,11728
-2.21934,0.491303,-1.32008,115.875,-130.188,168,2.70557,-0.952637,-0.219727,1,-2,-12,-9,13,11,1,2,11745
-1.93222,0.831202,-1.2093,92,-149,182.375,2.33691,-0.540527,0.269531,0,1,-1,-1,-4,0,-8,-3,11833
-1.87377,0.90917,-1.16535,71,-149.938,184.563,2.18359,-0.288574,0.161621,-2,-3,-3,0,2,0,0,-2,11850
-1.81144,0.983635,-1.10915,47.75,-147.875,180.313,1.99072,0.0429688,0.103516,0,-2,-1,0,1,-2,3,1,11867
-1.72941,1.05651,-1.02959,40.75,-158.5,180.688,1.59863,0.164063,0.219238,0,-1,-2,-1,-1,-3,-3,1,11885
-1.59847,1.11991,-0.908143,64.6875,-173.938,168.813,1.10303,0.286621,0.271484,0,-1,-1,-2,-5,-1,0,0,11902
-1.43399,1.16719,-0.760789,84.4375,-162.5,143.5,0.717285,0.394043,0.279297,-2,-3,-4,-1,-6,-5,0,0,11918
-1.25949,1.19713,-0.605314,84.875,-139.75,113.188,0.397949,0.631348,0.306641,0,1,3,-1,-1,1,-1,0,11936
-1.25949,1.19713,-0.605314,84.875,-139.75,113.188,0.397949,0.631348,0.306641,-1,-4,-1,-2,-4,-3,-5,-2,11953
-1.11157,1.21372,-0.471042,60.375,-102.938,82.0625,0.0795898,0.844238,0.407715,-3,-2,0,0,-8,-3,-3,-1,11970
-0.969313,1.22866,-0.331825,11,-64.6875,42.25,-0.257324,0.90625,0.53125,-4,-1,-3,0,3,0,1,0,11987
-0.889069,1.23275,-0.246783,-23.8125,-24.0625,-8.4375,-0.339355,0.929199,0.600098,-2,-7,-1,-3,-3,-2,2,-1,12004
-0.891396,1.22962,-0.242435,-39.625,21.3125,-63.125,-0.26123,0.821777,0.535156,1,-7,-2,-1,0,-4,-17,-2,12022
-0.891396,1.22962,-0.242435,-39.625,21.3125,-63.125,-0.26123,0.821777,0.535156,1,4,-3,-7,-1,0,6,4,12038
-1.1353,1.18262,-0.464183,-63.25,81.5625,-147.625,0.34375,0.915527,0.295898,1,13,0,0,4,-3,-3,-4,12056
-1.1353,1.18262,-0.464183,-63.25,81.5625,-147.625,0.34375,0.915527,0.295898,10,3,1,0,2,-1,-6,0,12073
-1.28525,1.14324,-0.595356,-87.625,103.125,-169.75,0.39502,0.918945,0.203613,-21,-6,-8,3,7,-5,-36,-7,12090
-1.95298,0.640297,-1.13575,-25.3125,228.188,-239.25,3.39014,-1.31006,-0.515625,-1,1,-1,3,4,-1,11,-2,12184
-1.97248,0.552592,-1.17352,5.0625,178.563,-198.125,3.06689,-0.782715,-0.352051,-4,0,3,3,-7,-7,5,-2,12201
-1.97248,0.552592,-1.17352,5.0625,178.563,-198.125,3.06689,-0.782715,-0.352051,1,-3,4,3,13,6,1,4,12218
-1.99995,0.474705,-1.1933,-50.875,135.375,-184.375,2.38818,-0.133789,-0.375488,-2,-1,-2,0,-2,-4,2,3,12235
-2.07518,0.407284,-1.19825,-209.438,98.3125,-167.063,1.85645,0.184082,-0.35498,-1,-2,-3,-3,-5,0,4,-3,12252
-2.17516,0.340185,-1.20197,-279.313,96.625,-140.25,1.18066,-0.325195,-0.507324,-5,-2,-1,0,-7,-4,-2,-16,12270
-2.26454,0.288436,-1.20784,-251.063,92.25,-95,0.760254,-0.685059,-0.549316,0,0,0,-4,-2,1,-4,-2,12288
-2.32427,0.248506,-1.21695,-166.438,87.3125,-59.875,0.461426,-0.756836,-0.540527,0,-2,-1,-1,-2,2,2,5,12304
-2.35019,0.216154,-1.22361,-77.5,60,-32.75,0.1875,-0.769043,-0.606934,-3,0,0,-3,3,0,-3,-3,12322
-2.35019,0.216154,-1.22361,-77.5,60,-32.75,0.1875,-0.769043,-0.606934,-1,-1,1,-3,1,1,-1,-3,12339
-2.3488,0.203246,-1.23049,5.8125,30.375,-2.625,-0.0141602,-0.761719,-0.696289,-2,-2,-1,-2,-1,0,7,5,12355
-2.33101,0.204681,-1.23579,62.5,5.4375,12.875,-0.208496,-0.717773,-0.854004,0,-1,1,0,-2,0,2,-1,12372
-2.30778,0.211537,-1.23458,83.125,-14.5,5.125,-0.352539,-0.741699,-1.01123,3,-1,-1,-3,-3,0,6,1,12389
-2.30778,0.211537,-1.23458,83.125,-14.5,5.125,-0.352539,-0.741699,-1.01123,-1,-3,-2,-4,-8,-2,13,5,12405
-2.27946,0.225088,-1.23384,61.8125,-25.75,33.4375,0.043457,-0.605469,-1.19824,4,-2,-1,-2,-6,2,6,-6,12422
-2.28157,0.243146,-1.24634,37.75,-33.4375,79.9375,0.23291,-0.333496,-0.975098,-3,-1,2,-10,-9,4,13,8,12439
-2.2704,0.323739,-1.27867,27.0625,-81.375,112.063,2.50928,-0.988281,-0.34082,6,-6,4,-5,-9,1,57,10,12514
-2.22935,0.421104,-1.27211,110.5,-188.938,206.375,2.98193,-0.90625,-0.313477,-2,0,-14,-6,-3,0,3,-4,12531
-2.16837,0.532776,-1.24681,141.5,-240.5,221.063,3.48877,-0.930176,0.0400391,7,1,3,3,-3,2,8,0,12548
-2.07928,0.652116,-1.21005,196.375,-254.313,245.438,3.10986,-0.981445,0.233887,-12,3,0,-2,-2,-1,-16,2,12564
-2.07928,0.652116,-1.21005,196.375,-254.313,245.438,3.10986,-0.981445,0.233887,-12,3,0,-2,-2,-1,-16,2,12581
-2.0087,0.754858,-1.17669,140.438,-199.125,228.938,2.68945,-0.830078,0.260254,-5,1,8,-2,-6,1,17,-8,12598
-2.0087,0.754858,-1.17669,140.438,-199.125,228.938,2.68945,-0.830078,0.260254,-5,1,8,-2,-6,1,17,-8,12614
-1.88219,0.937193,-1.09284,62.5625,-162.313,212.375,2.16992,-0.00488281,0.0751953,-3,0,-3,-1,-3,1,4,1,12632
-1.83264,1.02135,-1.03513,4.3125,-156.563,205.438,1.69043,-0.0522461,0.188477,5,-1,-3,2,1,1,2,0,12649
-1.83264,1.02135,-1.03513,4.3125,-156.563,205.438,1.69043,-0.0522461,0.188477,-14,-2,-4,-1,9,11,-19,-8,12666
-1.62091,1.16215,-0.845436,93.125,-144.25,178.75,0.720703,0.0107422,0.340332,0,1,2,-1,-10,0,-4,4,12684
-1.45961,1.21489,-0.721594,130.75,-122.875,153.625,0.501953,0.259766,0.266113,2,-2,-2,-3,8,3,0,2,12700
-1.45961,1.21489,-0.721594,130.75,-122.875,153.625,0.501953,0.259766,0.266113,-2,-2,-1,-2,-9,-5,-5,-2,12718
-1.29394,1.25694,-0.593882,127.063,-91.3125,131.25,0.239258,0.666016,0.216797,-4,-1,-2,-5,-1,-5,12,1,12735
-1.14069,1.28817,-0.469342,95.625,-63.75,102.688,-0.00634766,1.0293,0.231445,1,-1,-1,-1,-4,-3,7,2,12751
-0.968731,1.32368,-0.309509,35.8125,-38.0625,67.0625,-0.197266,1.17236,0.256348,-4,-3,0,0,-1,-1,-1,2,12768
-0.850992,1.34213,-0.154339,-62.5,39.4375,-79.5,0.134277,0.931152,0.448242,7,-2,-8,8,16,-2,-22,-4,12840
-1.0582,1.32318,-0.335449,-92.5625,75.875,-127.438,0.383301,0.822266,0.386719,-8,6,-3,-3,0,0,-1,-4,12857
-1.3474,1.28279,-0.578783,-157.625,134.5,-179.5,0.931152,0.647949,0.174805,-22,-5,-5,4,14,-5,-48,-5,12874
-1.3474,1.28279,-0.578783,-157.625,134.5,-179.5,0.931152,0.647949,0.174805,-22,-5,-5,4,14,-5,-48,-5,12891
-1.87348,1.06157,-1.00962,-173,283.625,-332.063,3.04883,-0.627441,-0.0288086,-10,-7,-6,-1,-16,0,10,-1,12908
-2.02246,0.917022,-1.11807,-166.688,311.75,-322.5,3.94727,-0.848145,-0.0717773,-11,0,-3,-8,-17,-3,-7,-7,12925
-2.02246,0.917022,-1.11807,-166.688,311.75,-322.5,3.94727,-0.848145,-0.0717773,4,-2,-2,-2,13,9,4,9,12941
-2.1233,0.775444,-1.1922,-129.375,319.375,-288.25,4.10303,-1.09961,-0.373535,-1,-1,2,-2,-14,-6,12,-5,12958
-2.17604,0.648652,-1.23496,-70.8125,276.75,-253.688,3.46875,-0.918457,-0.466309,-3,-1,-1,0,-13,4,1,-1,12975
-2.2027,0.541107,-1.25571,-43.125,218.938,-222.625,2.5249,-0.664551,-0.461914,-2,-1,0,2,1,-3,-3,2,12992
-2.23504,0.450185,-1.26003,-87,166.063,-201.188,1.88623,-0.207031,-0.416992,2,0,-4,-4,-6,0,1,0,13009
-2.23504,0.450185,-1.26003,-87,166.063,-201.188,1.88623,-0.207031,-0.416992,2,0,-4,-4,-6,0,1,0,13026
-2.32705,0.304855,-1.25067,-138.5,106.188,-136.938,1.04248,-0.671875,-0.595215,-1,-1,-1,-1,-4,-10,1,-2,13044
-2.34591,0.234529,-1.25118,-59.6875,97.6875,-97.1875,0.696777,-0.774414,-0.636719,-5,0,7,-2,-9,0,0,0,13060
-2.34591,0.234529,-1.25118,-59.6875,97.6875,-97.1875,0.696777,-0.774414,-0.636719,-4,-2,0,-8,-12,2,-6,-1,13078
-2.34267,0.191037,-1.2527,7.375,67.75,-62.625,0.280762,-0.717773,-0.64209,-2,0,1,1,8,2,-5,-4,13095
-2.28277,0.183954,-1.22487,59,-28.3125,47.5625,0.320313,-0.936523,-0.984863,2,-1,0,-6,3,11,10,-6,13182
-2.27276,0.206997,-1.23034,46.875,-55.375,83.9375,0.296875,-0.571289,-0.769531,-11,-3,-2,3,6,5,-18,-7,13198
-2.26748,0.250466,-1.2335,19.375,-81.5625,109.75,0.464844,-0.637695,-0.709961,8,-2,-6,-9,-23,-5,8,5,13216
-2.26748,0.250466,-1.2335,19.375,-81.5625,109.75,0.464844,-0.637695,-0.709961,9,3,13,6,2,-12,24,4,13233
-2.26382,0.299602,-1.23637,12.8125,-83.875,113.125,1.34473,-0.90918,-0.501953,-19,-3,-10,-16,-25,-7,-21,-7,13250
-2.24542,0.365858,-1.24023,56.0625,-112.125,153.813,2.58545,-0.90918,-0.33252,3,-1,-10,8,28,13,-29,-3,13267
-2.21472,0.467126,-1.24323,91.5,-171.688,233.938,3.02051,-0.747559,-0.132324,-20,1,-4,1,4,-14,-36,-5,13283
-2.15705,0.586125,-1.23111,148,-221.5,261.938,3.27734,-0.913574,0.187988,-2,-4,-5,-5,-7,-7,10,3,13301
-2.08651,0.706898,-1.21707,177.625,-208.875,278.375,3.23633,-1.12012,0.168457,2,0,-3,-1,4,3,10,9,13318
-2.08651,0.706898,-1.21707,177.625,-208.875,278.375,3.23633,-1.12012,0.168457,8,-3,-1,0,-4,-2,7,2,13335
-2.03489,0.813084,-1.2009,116.125,-173.188,252.688,2.80029,-0.602539,0.223145,-1,-3,-2,-2,-5,-3,-3,-4,13351
-1.98156,0.911978,-1.1755,97.125,-163.125,236.813,2.41162,-0.228027,0.139648,0,-3,-2,-5,-19,-8,25,-1,13368
-1.93291,1.00408,-1.13996,55.9375,-153.688,222.313,2.08252,-0.0556641,0.0600586,-4,0,1,0,-3,-10,2,-3,13385
-1.88203,1.09139,-1.09341,30.125,-145.625,214.063,1.70166,0.0688477,0.15918,-4,0,1,0,-3,-10,2,-3,13402
-1.78764,1.17274,-1.01071,54.1875,-156,203.813,1.14355,0.136719,0.245605,-1,0,-3,2,6,-10,-14,-2,13419
-1.64404,1.24007,-0.892989,95.25,-144,171.125,0.679199,0.36377,0.188477,0,0,-4,0,3,2,-1,0,13436
-0.77737,1.36909,-0.12052,6.875,-19.0625,-53.625,-0.230957,1.01221,0.493652,12,13,-4,-2,-7,-3,9,2,13539
-0.888364,1.34902,-0.224513,-29.75,15.1875,-102.063,-0.012207,0.97998,0.5,-7,4,3,1,-11,-6,1,-2,13556
-0.888364,1.34902,-0.224513,-29.75,15.1875,-102.063,-0.012207,0.97998,0.5,-6,-3,-1,-2,-1,2,-2,-2,13573
-1.05883,1.31827,-0.379577,-60.6875,45.9375,-146.25,0.201172,0.967773,0.49707,11,-4,-1,-2,15,0,-10,0,13590
-1.2536,1.27244,-0.550456,-89.8125,75.9375,-185.375,0.420898,0.839355,0.404785,-1,10,-1,0,-5,-1,38,-2,13607
-1.45244,1.20709,-0.717181,-120,115.875,-220.063,1.04346,0.70459,0.213867,-2,-1,0,9,1,5,-6,0,13624
-1.65194,1.1058,-0.878348,-148.063,180.563,-293.563,3.44775,0.396973,-0.152832,-2,-1,0,9,1,5,-6,0,13641
-1.65194,1.1058,-0.878348,-148.063,180.563,-293.563,3.44775,0.396973,-0.152832,-14,-3,-7,-8,-3,-4,-8,-4,13658
-1.94844,0.864045,-1.08867,-158.75,238.375,-290.125,3.69482,-0.818848,-0.0898438,2,-10,2,-6,-11,-6,-2,-3,13675
-1.94844,0.864045,-1.08867,-158.75,238.375,-290.125,3.69482,-0.818848,-0.0898438,-3,1,-1,-4,-3,2,-5,-3,13692
-2.02552,0.744414,-1.14248,-109.563,236.625,-270.875,3.65332,-0.871094,-0.382324,19,-1,-4,-3,12,18,19,30,13709
-2.06492,0.634725,-1.1772,-49.5,212.125,-244.25,3.44629,-0.865723,-0.321289,-7,2,1,0,-5,-11,-22,-15,13725
-2.08616,0.539358,-1.19428,-33.8125,167.938,-220.063,2.84961,-0.409668,-0.495605,-5,0,0,2,1,3,5,8,13743
-2.12134,0.460007,-1.19755,-96.125,122.625,-191.688,2.0459,-0.0947266,-0.518066,-3,3,0,2,-3,-14,0,4,13760
-2.12134,0.460007,-1.19755,-96.125,122.625,-191.688,2.0459,-0.0947266,-0.518066,-2,1,-1,2,-3,0,-1,-7,13778
-2.25925,0.332222,-1.19547,-200.25,81.4375,-110.813,0.822266,-0.586426,-0.508301,-4,-3,-2,-2,-2,-4,-4,-15,13795
-2.33467,0.250486,-1.19497,-6.4375,5.5,-5.1875,-0.0820313,-0.853027,-0.706055,0,1,-4,-3,-1,-3,-4,-3,13872
-2.32569,0.257937,-1.1927,28.6875,-21.75,11.75,-0.244629,-0.722656,-0.765137,-3,0,0,-2,-4,-3,-1,0,13889
-2.31451,0.272999,-1.18713,40.75,-40.0625,15.5625,-0.384277,-0.707031,-0.906738,-1,-1,-2,-1,-3,0,1,6,13906
-2.30489,0.288069,-1.18324,38.75,-47.5,29.5625,-0.244629,-0.860352,-1.06543,-3,-1,3,0,-6,1,6,2,13923
-2.30071,0.299452,-1.18679,31.5,-44.375,56.4375,0.180664,-0.802734,-1.0376,-5,-2,-1,-4,-1,1,0,-4,13940
-2.30071,0.299452,-1.18679,31.5,-44.375,56.4375,0.180664,-0.802734,-1.0376,-2,-1,3,-1,-10,-4,7,1,13957
-2.28039,0.366081,-1.20553,40.8125,-72.375,127.125,0.611328,-0.715332,-0.570801,5,-4,-4,-1,-2,1,10,7,13973
-2.28039,0.366081,-1.20553,40.8125,-72.375,127.125,0.611328,-0.715332,-0.570801,15,-6,7,-2,-9,0,17,-1,13990
-2.27328,0.417431,-1.21806,34.0625,-70.1875,133.563,1.42041,-0.740234,-0.446289,9,1,-7,2,11,-6,-47,-3,14007
-2.25249,0.484462,-1.22826,72.375,-102.688,164.5,2.61719,-0.889648,-0.29834,9,-1,-5,-4,-2,1,41,-2,14024
-2.20055,0.58366,-1.23376,156.75,-162.75,234,2.92969,-1.05957,-0.00146484,12,9,-1,-1,3,2,-14,0,14041
-2.10825,0.694878,-1.22644,252,-190.063,256.875,3.33838,-1.00098,0.10791,8,4,5,0,-21,-7,44,5,14058
-2.10825,0.694878,-1.22644,252,-190.063,256.875,3.33838,-1.00098,0.10791,-8,-4,-7,0,16,11,-15,0,14076
-2.03483,0.878155,-1.23266,58.625,-104,224.438,2.39258,-0.45752,0.233398,1,1,-1,3,-5,-3,16,-2,14093
-2.03483,0.878155,-1.23266,58.625,-104,224.438,2.39258,-0.45752,0.233398,0,-5,-7,-2,-4,1,3,-3,14111
-2.02117,0.963916,-1.22312,17.5,-123.5,212.75,2.34424,-0.459473,-0.0634766,1,0,-2,-2,7,5,-4,-2,14127
-1.66586,1.26158,-0.917252,103.625,-153.5,148.875,0.875,0.375,0.164063,8,-1,-1,-1,-5,-6,0,1,14205
-1.47346,1.30657,-0.759175,115.813,-125.5,121.563,0.612305,0.611328,0.130859,-2,2,2,-2,-2,3,-3,-1,14222
-1.24493,1.34387,-0.560459,95,-92.75,82.5625,0.184082,0.806152,0.277344,-2,-1,-1,-1,0,0,-2,0,14239
-1.24493,1.34387,-0.560459,95,-92.75,82.5625,0.184082,0.806152,0.277344,6,11,1,-3,-2,-2,6,0,14256
-0.795515,1.36699,-0.149001,44.1875,-46.25,13.1875,-0.351563,0.969727,0.525391,14,6,3,-2,2,1,1,3,14274
-0.795515,1.36699,-0.149001,44.1875,-46.25,13.1875,-0.351563,0.969727,0.525391,-14,-7,-3,-5,-1,4,-5,-2,14291
-0.654686,1.36579,-0.0219155,30.25,-11.625,-17.8125,-0.324707,1.00879,0.635254,-13,-8,0,0,1,4,11,2,14308
-0.636554,1.36343,-0.00560678,-10.3125,26.0625,-69.9375,-0.120117,1.06885,0.58252,-1,-6,-2,1,-2,-1,-2,1,14325
-0.833265,1.35086,-0.192347,-44.75,57.875,-125.813,0.171387,1.07959,0.460449,-15,-14,1,-6,-6,1,23,0,14342
-1.07573,1.32096,-0.418075,-69.3125,79.9375,-172.625,0.36084,1.06006,0.369629,2,0,7,-4,-3,-4,-18,-3,14360
-1.07573,1.32096,-0.418075,-69.3125,79.9375,-172.625,0.36084,1.06006,0.369629,7,-8,-2,-2,-8,5,44,4,14377
-1.55805,1.17856,-0.829299,-158.938,159.75,-274.375,3.16602,0.44043,-0.225586,-9,-3,-7,2,0,0,-28,-3,14394
-1.55805,1.17856,-0.829299,-158.938,159.75,-274.375,3.16602,0.44043,-0.225586,-5,-2,-8,1,13,-10,-54,-7,14410
-1.78961,1.06482,-1.01218,-190.313,259.688,-300.813,2.79297,-0.821289,0.0136719,-21,1,-7,-2,-5,-5,18,-3,14428
-1.91988,0.939603,-1.10155,-157.313,233.25,-305.625,3.6001,-0.862793,0.192383,-21,1,-7,-2,-5,-5,18,-3,14445
-1.98754,0.815968,-1.14918,-88.5625,213.5,-296.125,3.83984,-1.02539,-0.486816,9,0,3,1,-1,2,13,1,14462
-2.1088,0.54726,-1.18367,-133.563,97.625,-181.875,2.04443,-0.0522461,-0.328125,-1,0,0,1,5,-5,-10,0,14524
-2.19652,0.478228,-1.18128,-251.438,89.1875,-150.125,1.36963,-0.156738,-0.416992,-1,0,0,-2,1,2,2,-3,14541
-2.28614,0.425979,-1.18186,-257.25,83.6875,-102.125,0.846191,-0.526855,-0.348633,-6,-3,-2,-1,6,5,-9,-12,14558
-2.35268,0.382006,-1.18163,-192.313,75.0625,-81.125,0.633789,-0.625488,-0.512207,-1,-1,-1,-5,-7,-3,-1,-1,14575
-2.35268,0.382006,-1.18163,-192.313,75.0625,-81.125,0.633789,-0.625488,-0.512207,4,0,0,-2,-2,-1,8,8,14592
-2.39056,0.352841,-1.18205,-110.313,53.875,-49.5,0.305664,-0.728027,-0.578125,1,-2,0,-2,-3,-1,1,-6,14609
-2.39598,0.33036,-1.18535,-20.875,36.9375,-17.9375,0.0415039,-0.766602,-0.643555,2,-2,1,1,2,-3,3,2,14626
-2.38358,0.322902,-1.18869,40.5,12.625,-0.5,-0.180664,-0.702637,-0.786133,4,-1,0,-1,2,3,13,8,14643
-2.363,0.323359,-1.18774,71.625,-9.4375,-0.5625,-0.336914,-0.725586,-1.01953,-6,-2,-1,-3,0,-4,-4,-3,14660
-2.363,0.323359,-1.18774,71.625,-9.4375,-0.5625,-0.336914,-0.725586,-1.01953,1,-1,-3,-3,-2,1,7,1,14677
-2.32945,0.32893,-1.18773,66.1875,-28,29.625,-0.0566406,-0.939941,-1.34668,0,-1,-2,-1,-6,0,7,5,14693
-2.32945,0.32893,-1.18773,66.1875,-28,29.625,-0.0566406,-0.939941,-1.34668,-3,-2,-3,-2,2,0,-16,-8,14710
-2.32203,0.339555,-1.1946,49.6875,-49.6875,68.6875,0.306152,-0.805176,-1.1958,-6,-1,3,-1,-6,-2,13,4,14727
-2.31075,0.378055,-1.20368,43,-67.25,107.438,0.463867,-0.722168,-0.788086,2,-1,-1,-6,-5,-7,-2,-4,14744
-2.29647,0.419834,-1.21734,53.5,-66.9375,129.813,0.94043,-0.824219,-0.496582,-18,0,-5,-2,-9,-2,-15,-3,14762
-2.27313,0.477874,-1.22476,75.9375,-94.25,138.375,2.16943,-0.940918,-0.330078,3,-1,-3,-2,7,1,10,9,14779
-2.07463,0.805376,-1.21039,169.688,-181.313,271.938,3.22168,-0.481934,0.23291,-1,-2,-2,-5,-4,-9,0,-8,14840
-2.07463,0.805376,-1.21039,169.688,-181.313,271.938,3.22168,-0.481934,0.23291,5,-3,5,2,-10,-4,13,-3,14857
-2.04767,0.909605,-1.20643,68.625,-147.438,260.313,2.55273,-0.644531,0.330078,-10,-1,-2,-3,-3,-4,-7,-1,14874
-2.02679,1.00683,-1.19574,34.75,-141.063,240.875,2.24805,-0.59082,0.118164,-1,2,0,0,0,1,-2,-5,14891
-1.99619,1.10017,-1.17489,35.625,-140.688,229.188,2.29932,-0.412109,0.179199,-3,0,-1,-4,-7,0,5,-5,14908
-1.94286,1.18784,-1.13686,53.5625,-139.563,214.25,1.85254,-0.134766,0.148438,-3,-1,3,0,9,4,-8,-5,14925
-1.84005,1.2671,-1.04981,58.6875,-150.125,193.125,1.27051,0.0581055,0.171387,0,-1,0,-2,-6,-2,7,-2,14943
-1.67059,1.33278,-0.900746,73.1875,-144.938,162.5,0.949219,0.309082,0.137695,-1,1,1,-1,-5,-7,-10,-3,14960
-1.4383,1.38053,-0.690147,75,-122.688,131.813,0.649902,0.54248,0.171875,-1,-4,-2,-2,-5,-2,-2,-3,14978
-1.4383,1.38053,-0.690147,75,-122.688,131.813,0.649902,0.54248,0.171875,-1,-1,0,-1,-4,-5,0,-1,14995
-1.11989,1.41931,-0.391981,66,-91.75,98.9375,0.217773,0.730957,0.209961,6,-1,3,-5,-4,-1,1,0,15012
-0.780737,1.43594,-0.0664892,41.8125,-63.0625,54.625,-0.0961914,0.883789,0.266602,3,-3,-3,-5,-4,-5,1,2,15029
-0.522583,1.4361,0.185524,16.125,-37.8125,14.375,-0.216309,0.901367,0.339355,4,-9,-4,-1,-1,-2,-3,-1,15046
-0.369185,1.42865,0.336534,1.75,-17.8125,-14.875,-0.24707,0.859375,0.428223,7,4,3,2,-1,0,6,1,15063
-0.326694,1.42175,0.377573,-5.25,12.0625,-49.4375,-0.147949,0.859375,0.54248,-4,3,1,-1,-6,-3,18,1,15080
-0.326694,1.42175,0.377573,-5.25,12.0625,-49.4375,-0.147949,0.859375,0.54248,18,-6,-1,-1,2,1,31,5,15097
-1.54188,1.32128,-0.730405,-143.875,156.438,-229.063,1.78369,0.544922,-0.0649414,-5,3,-8,-5,-1,0,-28,-4,15174
-1.82824,1.21468,-0.97289,-156.438,240.313,-277.938,3.37256,-0.484863,-0.188477,-19,-1,-7,-1,0,4,-3,-2,15191
-2.0013,1.08285,-1.09814,-167.938,266.063,-305.625,3.62109,-0.980957,-0.126953,10,-7,-2,-4,-10,-1,40,-2,15207
-2.07944,0.957447,-1.15931,-74.0625,244.625,-278.938,3.95605,-1.03027,-0.171875,0,-2,-1,-4,3,-1,-4,-11,15225
-2.12182,0.842853,-1.1956,-40.1875,221.75,-250.75,3.65332,-1.03125,-0.674805,-4,1,0,3,-20,-8,0,-7,15242
-2.13654,0.74712,-1.20534,-22.125,162.25,-222.25,2.84717,-0.661133,-0.570801,-5,0,1,6,7,11,-5,1,15259
-2.13654,0.74712,-1.20534,-22.125,162.25,-222.25,2.84717,-0.661133,-0.570801,-1,3,1,7,12,0,0,4,15276
-2.15927,0.66581,-1.19558,-83.4375,109.438,-207,2.08887,-0.27832,-0.460938,-1,-2,-4,-2,0,4,1,1,15293
-2.21749,0.596848,-1.1788,-195.25,82.625,-184,1.50244,-0.0800781,-0.511719,0,2,1,1,3,-18,4,-3,15309
-2.29259,0.532656,-1.16633,-233.625,78,-144.125,1.08154,-0.543457,-0.569824,5,0,1,-1,4,-2,-16,5,15325
-2.34726,0.477651,-1.15829,-169.438,79.875,-114.375,0.740234,-0.818848,-0.657715,0,-2,0,-2,-4,-2,-3,3,15342
-2.34726,0.477651,-1.15829,-169.438,79.875,-114.375,0.740234,-0.818848,-0.657715,0,-3,0,-3,-6,-4,-1,2,15359
-2.36118,0.398937,-1.13507,-2.3125,13.25,-44.625,0.0419922,-0.965332,-0.685547,3,-1,3,0,3,-1,7,-2,15376
-2.36118,0.398937,-1.13507,-2.3125,13.25,-44.625,0.0419922,-0.965332,-0.685547,1,-1,-1,-3,1,1,15,8,15393
-2.33176,0.392146,-1.12434,66.0625,-14.875,-21.5,-0.21582,-0.832031,-0.665039,4,-1,1,1,8,3,4,9,15411
-2.30044,0.395469,-1.11112,79.25,-38.125,-13.1875,-0.32666,-0.724609,-0.730957,-3,-2,-2,-3,-5,-6,0,-1,15428
-2.26587,0.4264,-1.11205,33.75,-34.5,85.0625,0.37207,-0.685059,-0.727051,7,-2,4,1,-3,-5,13,-4,15491
-2.25125,0.460305,-1.12666,60,-40.5,108.875,0.454102,-0.592285,-0.462891,-3,-4,-11,-11,-11,-4,-13,1,15507
-2.23067,0.492954,-1.14587,81.8125,-30,118.688,0.687988,-0.820313,-0.442383,-14,-2,-3,8,16,2,-6,0,15524
-2.20363,0.545325,-1.1614,99.5,-59.625,143,2.08838,-1.00977,-0.539551,5,-3,-8,0,-3,-7,-13,-1,15541
-2.17017,0.62953,-1.18678,136.063,-90.125,231.875,2.69092,-0.807129,-0.330078,7,-3,4,0,-8,-2,21,0,15557
-2.17017,0.62953,-1.18678,136.063,-90.125,231.875,2.69092,-0.807129,-0.330078,-4,-2,2,2,6,4,-21,-3,15574
-2.10865,0.720047,-1.19381,189.063,-126.625,227.125,3.24268,-0.531738,-0.132813,-9,1,-13,-8,15,4,-10,-1,15591
-2.06633,0.814625,-1.20501,143.688,-114,247.125,3.22266,-0.728516,0.03125,-8,-2,-1,5,26,13,-14,-2,15608
-2.05553,0.906782,-1.21315,48.4375,-110.813,240.375,2.65137,-1.05566,0.0683594,0,6,1,5,-4,-1,-3,0,15623
-2.03087,1.00345,-1.20656,55.3125,-135.938,241.688,2.01514,-0.666016,0.272949,0,4,-1,1,3,8,8,1,15640
-2.03087,1.00345,-1.20656,55.3125,-135.938,241.688,2.01514,-0.666016,0.272949,-6,-8,-3,-3,2,-4,-3,-3,15657
-1.90071,1.1893,-1.12284,64.5625,-151.125,223.938,2.18799,0.0673828,-0.108398,2,-2,1,-5,-11,-4,5,-1,15675
-1.90071,1.1893,-1.12284,64.5625,-151.125,223.938,2.18799,0.0673828,-0.108398,3,2,-1,0,-3,-2,-4,1,15692
-1.79277,1.27306,-1.02697,49.625,-153.875,210.875,1.40479,0.0830078,0.0800781,1,-3,-5,1,3,5,-5,0,15710
-1.5803,1.34358,-0.830192,63.3125,-165.563,181,0.773438,0.227051,0.189453,7,11,7,-3,-5,-1,4,2,15727
-1.24261,1.38748,-0.518055,91.1875,-157.063,144.938,0.611816,0.508789,0.129395,-2,1,1,-1,-4,-4,-2,-1,15743
-0.2455,1.38366,0.431852,11.875,-60.6875,32.6875,-0.101563,0.897461,0.458008,5,1,0,1,-2,-3,-6,0,15813
-0.121332,1.36341,0.552682,3.3125,-36.4375,-1.5,-0.130371,0.848145,0.50293,-2,2,0,-1,-3,3,13,3,15830
-0.0695334,1.34982,0.60331,-5.8125,-7.6875,-28.25,-0.140137,0.818848,0.538574,-6,2,-2,4,0,-6,-18,-6,15848
-0.0834535,1.34526,0.590069,-19.1875,24.3125,-75.125,-0.0795898,0.975098,0.556152,9,6,0,-2,-3,1,13,4,15866
-0.272571,1.35463,0.413351,-51.75,53.8125,-122.875,0.114746,1.10205,0.458984,6,-5,2,2,-2,-6,-11,-3,15883
-0.585678,1.35898,0.127867,-101.25,88.9375,-170,0.378906,1.06006,0.309082,-10,-4,-4,-5,-9,-4,-13,-3,15900
-1.03497,1.33415,-0.276258,-158.625,138.563,-226.688,1.35205,0.756836,-0.0698242,2,17,7,-5,1,-10,-18,0,15917
-1.03497,1.33415,-0.276258,-158.625,138.563,-226.688,1.35205,0.756836,-0.0698242,-33,-21,-16,8,3,-11,-20,-6,15935
-1.47668,1.2569,-0.668955,-181.188,222,-301.125,3.65479,-0.491211,-0.416504,-11,4,-7,-4,4,6,-28,-2,15952
-1.75911,1.13839,-0.902416,-184.938,259.75,-326.313,3.51318,-1.11572,-0.187988,11,-5,-1,-2,5,0,22,1,15969
-1.89241,1.01683,-1.01649,-93.6875,237.938,-297.938,3.896,-0.820801,-0.25293,7,0,-3,-2,-6,-7,-1,-4,15986
-1.97215,0.897475,-1.08338,-71.4375,224.438,-281.063,3.46729,-0.651367,-0.331543,13,2,6,6,1,0,1,0,16003
-2.00776,0.783883,-1.12302,-17.4375,201.688,-266.188,3.021,-0.432129,-0.429199,-18,-7,-12,2,5,-3,-19,-8,16020
-2.00776,0.783883,-1.12302,-17.4375,201.688,-266.188,3.021,-0.432129,-0.429199,-18,-7,-12,2,5,-3,-19,-8,16036
-2.0378,0.678067,-1.14226,-49.0625,169.375,-255.5,2.54639,-0.0786133,-0.5,4,-5,-3,-3,-14,-2,2,1,16053
-2.09635,0.581248,-1.14537,-162.625,138.75,-240.75,2.08496,0.0180664,-0.564941,1,1,2,1,2,14,1,2,16070
-2.25277,0.339689,-1.1038,2.625,29.5625,-73.0625,0.0942383,-1.05664,-0.670898,2,-2,1,-1,4,-3,-6,0,16153
-2.22787,0.32031,-1.09444,64.5,0.6875,-42.4375,-0.0473633,-0.870117,-0.710938,-8,-1,-2,-3,-4,-5,-6,-10,16170
-2.20916,0.314991,-1.08354,54.875,-23.0625,-25.125,-0.213379,-0.760254,-0.764648,4,-1,0,0,2,-1,11,15,16187
-2.21375,0.31551,-1.07484,-5.25,-32.0625,-4.9375,-0.186035,-0.811035,-0.898926,-8,-1,-4,-5,-4,-1,-3,-12,16205
-2.22877,0.318319,-1.07554,-30.75,-30.3125,36.625,0.178711,-0.881836,-0.908691,-1,-3,-1,0,-4,-3,-4,-1,16222
-2.23535,0.325678,-1.08645,-3.8125,-25.375,77.8125,0.466797,-0.82959,-0.738281,14,-5,1,-5,-3,3,21,6,16239
-2.23535,0.325678,-1.08645,-3.8125,-25.375,77.8125,0.466797,-0.82959,-0.738281,0,0,3,8,5,-1,-9,0,16256
-2.22526,0.3584,-1.10179,41.625,-31.6875,109.313,0.367676,-0.892578,-0.519531,-11,-4,-8,-7,-5,-2,-20,-1,16273
-2.20708,0.399256,-1.11692,65.4375,-46.875,130.625,0.557617,-0.87207,-0.446289,9,2,-5,5,3,-7,-2,-4,16290
-2.17654,0.451013,-1.12881,101.75,-60.875,138.688,1.49268,-0.818359,-0.349609,-4,-1,-5,-1,7,1,0,10,16307
-2.12627,0.523733,-1.13982,158.688,-90.875,189.813,2.77197,-0.609375,-0.223145,-3,2,-2,-1,2,-4,16,-8,16324
-2.06345,0.628042,-1.1456,189.063,-137.938,265.938,3.22803,-0.421387,-0.0546875,3,-4,1,-3,-15,1,4,0,16340
-2.06345,0.628042,-1.1456,189.063,-137.938,265.938,3.22803,-0.421387,-0.0546875,9,4,-2,3,5,1,10,7,16357
-1.99161,0.742985,-1.132,181.188,-172.688,282.25,3.49707,-0.517578,0.0727539,3,0,2,-2,0,-1,22,6,16374
-1.95845,0.850644,-1.13271,96.4375,-120.25,284.438,3.04297,-0.212402,-0.0341797,-4,-1,0,2,-10,-4,-2,-2,16391
-1.94205,0.951897,-1.12593,31.8125,-118.563,265.5,2.26611,-0.395508,0.280762,3,-2,-4,-3,-1,1,-5,-2,16408
-1.62389,1.30274,-0.873369,72.875,-136.5,206.938,1.375,0.305176,0.0649414,0,1,-1,1,-3,-5,-2,-2,16493
-1.38091,1.36313,-0.652451,80.3125,-135.813,176.438,0.908691,0.459961,0.0351563,-5,-2,1,0,8,-2,-6,1,16510
-1.05432,1.39578,-0.347016,75.9375,-122.375,136.938,0.518066,0.509766,0.0634766,-5,-2,1,0,8,-2,-6,1,16528
-0.734544,1.4013,-0.04026,48.875,-104.375,94.75,0.239746,0.71582,0.133789,7,4,0,-1,-5,-3,-4,0,16544
-0.405672,1.38793,0.271653,52.375,-94.5,59.375,0.0141602,0.768066,0.314941,3,-3,3,-2,0,-2,-8,-1,16561
-0.405672,1.38793,0.271653,52.375,-94.5,59.375,0.0141602,0.768066,0.314941,7,-7,-8,-5,-8,-3,4,-1,16578
-0.199168,1.36357,0.462436,43.5,-68.5,27.9375,-0.162598,0.771973,0.458008,-1,1,-2,0,-4,-1,-1,-2,16596
-0.0849781,1.34171,0.569714,12.125,-37.3125,-4.1875,-0.31543,0.902832,0.567871,-5,0,-1,-1,-2,1,4,-1,16613
-0.0555461,1.32718,0.599367,-14.3125,-9.3125,-48.125,-0.291016,0.956055,0.58252,4,8,-4,2,5,-2,-15,2,16631
-0.117544,1.32161,0.5478,-51,23.6875,-99.0625,0.0644531,0.92627,0.525879,-15,-8,-5,3,5,-2,-25,-7,16648
-0.322439,1.32966,0.3626,-76.25,60.625,-135.375,0.395996,0.903809,0.518555,14,10,-4,-6,-4,3,19,0,16664
-0.613038,1.33291,0.0952151,-91.25,96.6875,-171.188,0.764648,0.880371,0.292969,0,-7,6,-6,-7,3,-8,1,16682
-1.03572,1.30621,-0.297544,-120.813,153.75,-243.75,3.01904,0.525879,-0.29541,-12,-6,-13,-6,-2,4,-47,-3,16699
-1.03572,1.30621,-0.297544,-120.813,153.75,-243.75,3.01904,0.525879,-0.29541,3,-2,0,-1,1,5,15,0,16716
-1.47638,1.23319,-0.689113,-189.625,251.75,-298.438,2.60205,-1.02588,-0.192383,-13,-1,-4,-4,15,-4,-27,-7,16734
-1.73311,1.12935,-0.901882,-170.625,241.625,-288.125,3.63623,-0.953613,-0.0654297,-2,-1,-3,-3,10,-3,4,-4,16750
-1.98815,0.812857,-1.13017,-20.1875,181.313,-228.688,2.87354,-0.450195,-0.561523,-6,2,-2,1,-13,0,3,1,16816
-2.02757,0.727602,-1.14402,-85.625,129.125,-209.438,2.28125,-0.0136719,-0.472168,1,-1,-4,5,10,-7,-2,-1,16833
-2.09874,0.657269,-1.13927,-212.5,86.375,-182.75,1.61377,-0.218262,-0.514648,1,0,-6,3,-3,-9,1,-4,16850
-2.17341,0.593341,-1.13615,-218.5,80.5,-142.063,0.861328,-0.634277,-0.505859,1,0,-4,1,-2,2,6,-1,16867
-2.22674,0.541603,-1.13123,-161.438,68.5625,-113.375,0.586914,-0.704102,-0.481934,-2,-2,2,0,-1,-2,22,5,16883
-2.25378,0.492105,-1.12555,-90.375,51.3125,-82.875,0.279785,-0.708008,-0.475098,3,-3,1,-3,-1,-3,-5,1,16900
-2.25378,0.492105,-1.12555,-90.375,51.3125,-82.875,0.279785,-0.708008,-0.475098,0,-1,0,-1,3,5,3,-1,16917
-2.25793,0.458849,-1.1239,-18,35.5,-47.0625,0.0878906,-0.806152,-0.576172,1,-3,-2,-1,-1,-3,-1,0,16934
-2.24213,0.439525,-1.12466,44.875,20.125,-21.3125,-0.102539,-0.861816,-0.664551,-7,-4,-2,-2,-1,-3,-3,-8,16951
-2.21721,0.428066,-1.12411,79.9375,2.75,-12.375,-0.141602,-0.746582,-0.739258,-7,-4,-2,-2,-1,-3,-3,-8,16968
-2.20019,0.417876,-1.12257,69.3125,-8.1875,-12.875,-0.0825195,-0.618652,-0.883301,10,0,1,0,-5,-4,6,9,16985
-2.19105,0.408147,-1.1228,59.9375,-20.1875,4.125,0.120117,-0.717773,-1.15283,-14,3,-1,-1,-18,-7,-28,-4,17002
-2.19232,0.411384,-1.13542,36.25,-16.25,59.875,0.246582,-0.730469,-1.00488,12,2,-2,-8,-10,0,40,23,17019
-2.19232,0.411384,-1.13542,36.25,-16.25,59.875,0.246582,-0.730469,-1.00488,5,-4,6,4,17,-1,6,-5,17036
-2.18873,0.446109,-1.14863,26,-35.5,109,0.14502,-0.850098,-0.595215,3,-3,-8,-4,-4,4,1,8,17053
-2.18452,0.487529,-1.16191,29.125,-50.9375,131.063,0.552246,-0.93457,-0.637207,-21,-1,-12,-15,-21,-7,-18,-4,17070
-1.95918,0.851993,-1.13254,142.25,-164.125,276.563,3.44287,-0.763184,0.166016,6,-2,-5,-1,20,15,23,16,17141
-1.95918,0.851993,-1.13254,142.25,-164.125,276.563,3.44287,-0.763184,0.166016,-5,-3,6,8,7,-17,-37,-14,17158
-1.94601,0.950244,-1.12838,28.1875,-111.625,258.625,2.77539,-0.411621,0.319336,-4,1,-2,1,2,-12,16,0,17175
-1.91104,1.04347,-1.11145,59.4375,-118.25,241.188,2.35059,-0.732422,0.283203,0,-5,4,-3,8,-5,0,1,17192
-1.85295,1.13079,-1.0736,70.5625,-124.688,222.813,2.34961,-0.178711,-0.128418,-3,1,0,-2,4,-4,3,1,17208
-1.78612,1.21115,-1.00896,20.5,-126.688,204.75,1.8833,0.132813,-0.0537109,-2,2,-1,-3,-11,-15,14,-1,17225
-1.78612,1.21115,-1.00896,20.5,-126.688,204.75,1.8833,0.132813,-0.0537109,3,-3,-3,4,-2,2,-6,-6,17242
-1.41193,1.33947,-0.663954,82.5625,-142.313,163.5,1.06543,0.212402,0.10791,-6,-3,-1,-7,-12,9,-5,-1,17259
-1.41193,1.33947,-0.663954,82.5625,-142.313,163.5,1.06543,0.212402,0.10791,-6,1,-2,-9,-34,2,-4,0,17276
-1.11206,1.37715,-0.389359,89.0625,-121.438,147.438,0.787598,0.380859,0.189941,-7,-3,-1,-3,-1,8,9,0,17293
-0.764493,1.39253,-0.0662856,83.625,-105.5,125.875,0.353027,0.682129,0.302246,6,1,0,6,-2,4,-1,-3,17309
-0.407419,1.38505,0.270503,61,-84.4375,71,-0.0585938,0.916992,0.430176,-4,-1,-1,-4,2,11,-2,3,17326
-0.195898,1.36498,0.470203,29.875,-55,15.3125,-0.114746,1.08447,0.519531,-2,0,-3,-4,-3,2,1,1,17345
-0.083144,1.34943,0.579283,-1.6875,-10.75,-21.3125,-0.134277,1.19434,0.65332,2,-13,1,-1,28,1,2,-3,17363
-0.0739521,1.34515,0.596916,-40.3125,29.5,-63.5,-0.204102,1.08887,0.685059,-11,-8,0,2,-7,-2,-1,-2,17379
-0.0739521,1.34515,0.596916,-40.3125,29.5,-63.5,-0.204102,1.08887,0.685059,22,8,2,1,1,-1,6,3,17396
-0.999205,1.35392,-0.242009,-121.188,130.75,-194.313,0.444336,0.71582,0.208008,-1,7,-2,6,10,3,12,1,17456
-1.40515,1.29805,-0.610613,-137.938,181.688,-237.875,1.98975,0.380371,-0.117676,-5,-2,-6,-1,2,-12,-12,-4,17474
-1.70107,1.20423,-0.867179,-149.188,226.188,-271.25,3.03369,-0.32959,-0.223145,-2,3,6,-11,-13,-1,22,-2,17491
-1.87351,1.08635,-0.997938,-152.188,223.625,-296.5,3.47607,-0.95166,-0.141602,2,0,5,0,12,1,-18,-9,17508
-1.87351,1.08635,-0.997938,-152.188,223.625,-296.5,3.47607,-0.95166,-0.141602,11,-1,-11,-2,-8,6,32,6,17526
-1.99519,0.865656,-1.10841,-35.8125,187,-249.375,3.4541,-0.600098,-0.394043,19,3,11,7,18,3,10,-4,17543
-2.02951,0.769868,-1.13126,-50.5,157.938,-228.5,2.86475,-0.325684,-0.351563,-7,-2,4,5,-5,-24,-6,15,17560
-2.02951,0.769868,-1.13126,-50.5,157.938,-228.5,2.86475,-0.325684,-0.351563,-7,-2,-3,-2,10,4,-12,-3,17576
-2.08738,0.683622,-1.13816,-152.625,128.938,-211.813,2.21484,-0.105957,-0.269531,0,1,0,1,-4,-3,2,3,17593
-2.15982,0.606676,-1.13931,-205.625,117.875,-186.688,1.6748,-0.459961,-0.426758,5,-2,-3,-2,-6,2,4,2,17611
-2.22368,0.537615,-1.13898,-186.938,101.875,-140.375,1.16846,-0.783691,-0.32666,8,0,1,0,8,1,7,5,17628
-2.24975,0.469716,-1.13589,-87.75,71.625,-96.1875,0.743164,-0.797852,-0.463867,-8,-3,1,-2,0,1,-2,-10,17646
-2.25632,0.429187,-1.13279,-24.4375,37.4375,-56.9375,0.338867,-0.727051,-0.558594,3,-2,0,-1,-18,-5,1,-2,17663
-2.25428,0.415885,-1.13203,7.375,6.4375,-13.3125,-0.0268555,-0.675293,-0.59375,0,-1,1,0,4,15,-1,-4,17680
-2.25428,0.415885,-1.13203,7.375,6.4375,-13.3125,-0.0268555,-0.675293,-0.59375,1,-1,0,1,6,-7,-4,-2,17697
-2.25295,0.413348,-1.1322,12.625,-5.25,1.375,-0.194336,-0.575684,-0.644043,-4,0,-1,-2,-2,-10,-2,2,17715
-2.25475,0.414515,-1.15614,57.1875,-31.625,72.4375,0.297852,-0.692383,-0.881836,10,1,5,0,0,-8,3,-1,17797
-2.2315,0.455446,-1.16511,80.6875,-63.3125,114.438,0.319336,-0.581055,-0.705078,2,-1,-3,-4,-5,-3,-9,-4,17813
-2.20827,0.504014,-1.17724,81.5625,-68.9375,142.438,0.624512,-0.658691,-0.40918,-6,-7,-7,-8,-9,2,10,3,17831
-2.18117,0.559817,-1.18707,92,-73.625,143.625,1.6626,-0.793945,-0.331055,11,3,6,-3,-2,-3,9,2,17847
-2.13479,0.64608,-1.19162,140.188,-128.125,212.375,2.6333,-0.647461,-0.125,8,-3,14,3,-5,-4,28,2,17865
-2.06041,0.76114,-1.17655,185.125,-194.688,268.375,3.19287,-0.621582,-0.0283203,8,-4,-14,-4,-6,2,2,14,17881
-2.06041,0.76114,-1.17655,185.125,-194.688,268.375,3.19287,-0.621582,-0.0283203,10,4,0,-3,-5,-2,11,5,17898
-1.99724,0.875505,-1.1525,130.813,-187.188,273.625,3.48389,-0.699219,0.00927734,1,-2,-4,-5,4,-2,2,1,17915
-1.96148,0.988373,-1.12319,34.8125,-174.5,276.75,2.82031,-0.698242,0.374512,-4,-5,-11,3,18,3,-3,-4,17932
-1.89625,1.09038,-1.07459,66.625,-169,249.063,2.28955,-0.66748,0.189453,15,2,0,3,-2,11,23,6,17949
-1.81773,1.18214,-1.00943,55.375,-149.625,230.25,2.18848,-0.496582,0.0908203,-14,-4,-8,0,2,10,-14,-6,17966
-1.71638,1.26322,-0.913337,31.625,-137.563,208.25,1.81787,0.0366211,0.0644531,-17,-2,-4,-5,-11,-2,-9,-2,17983
-1.54333,1.33402,-0.745904,33.6875,-140.813,194.063,1.47119,0.295898,0.0249023,3,1,0,3,-1,-6,0,-1,18000
-1.54333,1.33402,-0.745904,33.6875,-140.813,194.063,1.47119,0.295898,0.0249023,0,0,1,1,-13,-3,-1,-3,18017
-1.26563,1.3864,-0.47335,31.5625,-135.75,170.063,1.16504,0.416504,-0.0439453,-1,-2,-2,-1,-1,2,-3,1,18034
-0.88364,1.40609,-0.097184,33.25,-136.938,132.688,0.70752,0.348633,0.0151367,2,-2,0,4,10,0,3,2,18052
-0.0419186,1.30628,0.647547,60,-31.8125,-13.3125,-0.28418,0.969727,0.656738,-13,-3,1,1,5,2,-1,-4,18121
-0.0419186,1.30628,0.647547,60,-31.8125,-13.3125,-0.28418,0.969727,0.656738,-6,1,5,0,3,1,-8,-1,18138
-0.0181998,1.29253,0.6582,17.6875,3.875,-64.25,-0.250977,1.0708,0.708984,13,9,3,-4,-2,1,-2,1,18155
-0.160977,1.30509,0.521749,-37.5625,53.8125,-120.063,0.0791016,1.12744,0.516113,4,-4,-7,3,-4,-5,12,2,18172
-0.421762,1.32009,0.286367,-100.438,98.1875,-171.25,0.30957,1.15088,0.398438,1,-5,-6,-1,0,-3,7,-3,18189
-0.769971,1.31218,-0.0271682,-131.5,115.25,-212.125,0.572754,0.882813,0.336426,-17,-11,-9,-3,-11,-8,-15,-6,18206
-1.16267,1.26978,-0.37099,-177.438,154.875,-253.25,1.42139,0.510254,-0.150879,8,10,-7,12,16,2,3,4,18223
-1.16267,1.26978,-0.37099,-177.438,154.875,-253.25,1.42139,0.510254,-0.150879,19,3,6,-4,-8,2,37,5,18239
-1.49102,1.18952,-0.655262,-172.438,208.938,-287.25,3.48096,-0.197754,-0.333496,-11,-18,-8,-5,-7,-2,-1,-6,18256
-1.72627,1.07593,-0.849187,-169.938,248.438,-315,3.49561,-0.817383,-0.138184,-11,-18,-8,-5,-7,-2,-1,-6,18273
-1.86151,0.96423,-0.960547,-114.938,233.688,-275.063,3.85791,-0.804199,-0.212402,5,-5,5,1,-1,0,3,-3,18290
-1.94532,0.85748,-1.03294,-76.3125,220.313,-247.813,3.6792,-0.793945,-0.639648,-12,0,1,0,-6,-5,5,-5,18307
-1.98984,0.768406,-1.06782,-54.9375,161.938,-208.813,3.10889,-0.567383,-0.545898,-13,-2,1,-1,-1,-14,-6,0,18324
-2.0385,0.696961,-1.07985,-116.375,111.188,-174.063,2.1626,-0.126953,-0.534668,-9,-1,-2,-2,10,0,-18,-2,18342
-2.0385,0.696961,-1.07985,-116.375,111.188,-174.063,2.1626,-0.126953,-0.534668,1,1,7,0,13,3,5,4,18360
-2.12498,0.641523,-1.07969,-248.125,77.125,-138.813,1.62061,-0.134766,-0.575195,1,-1,-9,-1,4,12,12,-6,18377
-2.31201,0.501138,-1.10949,-74.6875,68.125,-41.5,0.447754,-0.753418,-0.505371,-3,0,2,-5,2,5,-10,-2,18436
-2.31497,0.479616,-1.1137,-1.125,21.6875,-9.1875,0.23291,-0.568848,-0.56543,4,0,1,-4,2,4,3,-1,18453
-2.30635,0.47614,-1.1137,36.875,-12.125,3.6875,-0.0263672,-0.39209,-0.617676,-3,-1,1,-3,-1,-3,-1,0,18471
-2.29606,0.480232,-1.10613,34.0625,-34.1875,-1.6875,-0.27002,-0.45166,-0.717285,-9,-2,-3,-4,-5,-2,-10,0,18488
-2.28832,0.488423,-1.09628,17.25,-47.0625,9.0625,-0.312012,-0.681641,-0.770508,-4,-4,-3,-1,16,14,-11,4,18505
-2.28907,0.497944,-1.0958,5.1875,-40.9375,38.5,-0.136719,-0.752441,-0.824707,0,-3,-3,-2,-9,2,8,7,18522
-2.28907,0.497944,-1.0958,5.1875,-40.9375,38.5,-0.136719,-0.752441,-0.824707,-4,-2,-1,0,-1,-4,10,-5,18540
-2.29359,0.506337,-1.1021,7.9375,-43.375,63.25,0.21875,-0.72168,-0.898926,-14,-2,-5,-3,1,0,-29,-6,18556
-2.29653,0.523748,-1.11035,14.6875,-64.375,93.6875,0.420898,-0.680664,-0.851074,5,-3,-1,2,1,-4,10,-1,18573
-2.29369,0.569992,-1.12632,32.0625,-68.3125,135.5,0.380371,-0.689941,-0.636719,15,-2,2,5,-5,-5,18,0,18590
-2.28975,0.617464,-1.14547,41.3125,-69.4375,148.938,0.944824,-0.671387,-0.51416,5,-6,-2,4,21,3,-4,0,18608
-2.27159,0.689199,-1.16099,78.9375,-107.375,178.688,2.64209,-0.628418,-0.52002,4,2,8,-8,-15,-4,1,-4,18624
-2.23047,0.782526,-1.16586,127.313,-160.313,214.625,2.67285,-0.821289,-0.345703,0,0,-5,-6,-6,4,15,-1,18642
-2.23047,0.782526,-1.16586,127.313,-160.313,214.625,2.67285,-0.821289,-0.345703,2,0,-1,0,5,-3,-14,-2,18659
-2.15612,0.891054,-1.1479,175,-209.563,232.375,3.26221,-1.11523,-0.262207,8,-1,2,9,10,-9,5,10,18676
-2.07967,0.997024,-1.11808,149.813,-201,234.063,3.08203,-1.12207,-0.0449219,-5,2,1,1,0,4,-13,-1,18694
-1.81843,1.25375,-0.926364,97.625,-153.25,182.75,2.19189,-0.303711,-0.0585938,-5,-1,-1,1,-7,-5,-5,-5,18758
-1.64709,1.32367,-0.780548,89.5625,-147.063,177.938,1.58447,0.13916,0.078125,-1,-2,-2,2,-17,1,1,2,18775
-1.35243,1.37811,-0.515763,102.75,-150.938,167.25,1.1958,0.185059,0.129395,-1,-1,-2,-1,18,20,-10,-8,18792
-0.926667,1.40593,-0.122222,109.375,-143.875,148.125,0.736328,0.437012,0.224609,3,1,1,0,-10,-2,4,-3,18809
-0.512589,1.40177,0.259064,107.188,-123.813,118.5,0.501465,0.631836,0.186035,3,0,2,4,0,-5,0,1,18826
-0.14507,1.37742,0.601634,76.25,-96.75,90.625,0.0864258,0.810547,0.34082,0,-3,-1,-2,9,-6,-2,-2,18844
-0.14507,1.37742,0.601634,76.25,-96.75,90.625,0.0864258,0.810547,0.34082,3,10,2,1,-9,-4,4,-1,18861
0.0511737,1.34219,0.781653,43.1875,-73.75,38.4375,-0.208008,0.964844,0.51416,1,1,0,0,2,-5,-8,-1,18877
0.133003,1.31346,0.852212,21.8125,-42.0625,-13.375,-0.301758,1.04102,0.594727,3,-2,-1,0,6,0,-6,-1,18894
0.164638,1.3018,0.873219,15.75,4.5,-49.4375,-0.270508,1.05811,0.606934,-10,-2,-1,-3,-14,-12,-1,2,18911
0.123841,1.30917,0.832792,-20.0625,47.5,-91.9375,-0.0913086,0.883301,0.486816,0,-1,-1,-3,2,2,-4,-1,18929
-0.0672959,1.33608,0.661225,-74.5,81.6875,-136.75,0.252441,0.826172,0.431641,6,3,-1,-1,4,0,-6,-1,18947
-0.372305,1.35958,0.386214,-108.438,110.875,-168.813,0.437012,0.839355,0.366211,-6,-3,4,7,12,1,-7,-3,18964
-0.372305,1.35958,0.386214,-108.438,110.875,-168.813,0.437012,0.839355,0.366211,0,-7,-8,-4,-2,-2,-14,-2,18982
-0.7965,1.36095,-0.00483039,-120.813,134.438,-201.063,0.811035,0.625488,0.0732422,-8,-3,-9,-5,5,3,-28,-5,18998
-1.26925,1.31716,-0.433133,-159.75,178.063,-248.938,2.85986,0.270508,-0.277832,5,-8,2,-6,7,10,7,0,19014
-2.01791,0.874661,-1.08803,-47.0625,216.313,-255.875,3.61816,-0.67334,-0.521484,-1,0,-2,1,-8,-7,7,2,19086
-2.05799,0.777287,-1.11533,-57.125,173,-225.625,2.89355,-0.570313,-0.494141,-16,-3,-5,-9,-14,10,-1,5,19102
-2.05799,0.777287,-1.11533,-57.125,173,-225.625,2.89355,-0.570313,-0.494141,1,-2,0,4,7,12,2,-5,19119
-2.1112,0.693739,-1.12015,-143.625,126.563,-203.438,1.97852,-0.194824,-0.477051,-3,0,0,-1,-11,-7,-2,0,19136
-2.17858,0.623145,-1.11014,-210.75,91,-182.313,1.38574,-0.458984,-0.585938,5,-2,-1,1,-8,-6,3,2,19153
-2.24986,0.563445,-1.1028,-218.063,77.4375,-130,0.877441,-0.745117,-0.436035,-7,-3,-1,-4,-2,-11,-7,-1,19170
-2.29626,0.514034,-1.10578,-131.5,87.4375,-89.4375,0.59082,-0.825684,-0.458984,0,-2,2,0,-7,-7,-14,-10,19188
-2.30611,0.472601,-1.10513,-42.4375,52.875,-50.875,0.231934,-0.87793,-0.500977,-4,-2,1,0,-4,-10,-9,-5,19205
-2.30611,0.472601,-1.10513,-42.4375,52.875,-50.875,0.231934,-0.87793,-0.500977,2,-3,0,-1,-3,-10,7,-7,19222
-2.29771,0.448858,-1.10486,18.875,23.9375,-24.4375,0.0712891,-0.763184,-0.581055,-5,-1,-1,-1,-7,-5,-2,-3,19239
-2.29039,0.43748,-1.10252,24.8125,0.1875,-13.9375,-0.0981445,-0.641113,-0.700684,0,-1,0,-1,2,2,-4,-2,19255
-2.29205,0.43439,-1.10036,3.3125,-14.375,0.375,-0.187012,-0.666016,-0.812012,0,0,-2,-4,-1,-2,3,3,19272
-2.29205,0.43439,-1.10036,3.3125,-14.375,0.375,-0.187012,-0.666016,-0.812012,4,-2,0,-2,-6,-8,1,-4,19289
-2.29529,0.436575,-1.11889,30.3125,-10,54,0.0654297,-0.83252,-1.04834,0,-1,-1,-2,5,0,7,-1,19305
-2.2899,0.449444,-1.13476,52.25,-33.3125,87.5625,0.26416,-0.664063,-0.939941,-5,0,-1,-3,-15,-6,3,1,19323
-2.2899,0.449444,-1.13476,52.25,-33.3125,87.5625,0.26416,-0.664063,-0.939941,-7,-1,0,-2,-3,-1,-14,-5,19340
-2.20542,0.682054,-1.18126,131.938,-131.5,210.625,2.64551,-0.732422,-0.230469,-7,8,-1,-5,-5,11,-8,-3,19413
-2.12234,0.788727,-1.16152,200.375,-205.688,230.25,3.13428,-0.739258,-0.0273438,-11,-8,2,-1,5,9,-1,-3,19430
-2.01104,0.904092,-1.1255,241.313,-218.125,258.313,3.21045,-0.868164,-0.00830078,5,-1,-2,4,-5,1,33,3,19448
-2.01104,0.904092,-1.1255,241.313,-218.125,258.313,3.21045,-0.868164,-0.00830078,10,-1,-10,1,1,-4,0,0,19465
-1.93799,1.00583,-1.07891,100.625,-185.563,238,2.87695,-0.827637,-0.0366211,-5,-7,-4,-1,-1,-15,5,-5,19482
-1.85273,1.09287,-1.01541,85.9375,-165.375,207.688,2.40186,-0.498535,0.221191,0,1,-1,0,-8,-14,-3,-6,19498
-1.73452,1.1692,-0.923457,100.5,-157.875,188,2.33447,-0.381348,-0.140137,-2,-3,-1,2,-4,-2,3,-4,19515
-1.58191,1.23508,-0.788095,75,-155.625,175.75,1.89746,0.135742,-0.0112305,-3,-6,-1,1,-4,0,5,3,19533
-1.34946,1.28669,-0.57504,83.75,-167.125,167.25,1.37695,0.282227,0.081543,4,3,-2,4,13,12,3,-1,19550
-1.04101,1.31582,-0.29563,110.063,-163.125,153.25,1.19482,0.409668,0.0888672,-5,1,2,-2,4,2,-10,-3,19567
-1.04101,1.31582,-0.29563,110.063,-163.125,153.25,1.19482,0.409668,0.0888672,6,-14,1,-2,-2,-3,7,3,19583
-0.726318,1.32371,-0.00946706,105.563,-138.75,138,0.760742,0.588867,0.12793,-9,-5,-3,-4,7,2,-9,-1,19600
-0.46209,1.30978,0.236203,71.875,-125.5,112.5,0.320801,0.74707,0.272949,4,0,-2,-1,-1,2,-1,-1,19617
-0.291243,1.28025,0.392605,54.125,-115.188,70.375,0.0302734,0.73877,0.5,5,2,0,-4,-2,6,-6,-2,19634
-0.146119,1.24587,0.524978,33.625,-83.8125,32.625,-0.177246,0.874023,0.621094,-4,1,-3,0,-4,-1,3,0,19651
-0.0656742,1.21904,0.596126,14.25,-40.25,-4.125,-0.241211,0.964844,0.74707,-7,2,-2,-3,-1,-1,-9,1,19668
-0.232153,1.24205,0.454043,-90.9375,91.1875,-125,0.303711,0.865234,0.47168,18,7,4,9,8,-2,3,-4,19740
-0.467497,1.2633,0.2542,-134.375,124,-159.688,0.481445,0.79248,0.244141,4,0,2,0,-14,-14,-8,0,19757
-0.822212,1.26623,-0.0555699,-169.563,166.75,-208.438,1.67188,0.5625,-0.155273,13,-5,-5,-2,-9,-5,33,7,19775
-1.2336,1.24338,-0.417008,-193.688,241.563,-221.125,3.18115,-0.391113,-0.337402,-3,-2,-9,-9,-19,-6,52,5,19793
-1.58076,1.16755,-0.709783,-210.375,260.375,-261,3.74023,-1.02051,-0.202148,-15,0,-6,-4,16,14,-66,-5,19809
-1.58076,1.16755,-0.709783,-210.375,260.375,-261,3.74023,-1.02051,-0.202148,2,3,6,2,-25,-4,26,-1,19826
-1.79731,1.081,-0.895201,-140.813,257.188,-217.813,3.51709,-1.24512,-0.353516,17,19,10,10,14,4,27,2,19843
-1.92313,0.993162,-1.00618,-86.5,226.938,-195,3.07764,-1.15234,-0.414063,17,19,10,10,14,4,27,2,19861
-2.00585,0.909088,-1.08288,-57.75,210.438,-174.125,2.78711,-0.585449,-0.282715,-3,-7,-3,-1,-3,-2,-2,7,19878
-2.0622,0.826585,-1.12392,-72,173.5,-177.313,2.52051,0.0224609,-0.453613,-7,-5,0,1,-2,-7,-8,1,19896
-2.12696,0.749581,-1.14177,-149.25,141.688,-173.063,1.8042,-0.263184,-0.625488,-3,2,-2,-1,12,11,-2,-3,19914
-2.18681,0.676214,-1.14798,-158.375,114.75,-151.188,0.918945,-0.591797,-0.567383,-2,-2,-2,-1,-5,2,-6,-4,19932
-2.23154,0.626399,-1.15135,-121.875,80.4375,-95.6875,0.505859,-0.841797,-0.68457,-1,-3,-1,0,10,-1,5,3,19949
-2.25345,0.57841,-1.15846,-49.4375,66.4375,-58.75,0.20459,-0.75293,-0.649414,4,-1,-1,0,11,20,13,7,19967
-2.24916,0.546399,-1.16165,24.3125,32.0625,-34.375,0.136719,-0.707031,-0.723145,-1,-2,0,-3,-12,-20,-9,-10,19984
-2.24916,0.546399,-1.16165,24.3125,32.0625,-34.375,0.136719,-0.707031,-0.723145,0,-3,0,0,4,2,10,-3,20000
-2.22131,0.535214,-1.14245,6.1875,-47.375,35.5625,-0.0717773,-0.747559,-0.928711,-3,-4,-1,-4,-10,-2,-3,-3,20068
-2.22604,0.541311,-1.15102,14.1875,-34.625,64.875,0.319336,-0.643555,-0.811523,-12,-3,-5,1,1,-4,-22,-2,20085
-2.22604,0.541311,-1.15102,14.1875,-34.625,64.875,0.319336,-0.643555,-0.811523,4,-1,4,5,6,-5,-10,-1,20101
-2.22195,0.558576,-1.163,39.25,-40.875,91.25,0.330566,-0.518555,-0.594238,-4,-1,-2,5,10,-3,-25,-3,20119
-2.21013,0.597557,-1.16941,43.375,-62.5625,109.5,0.402832,-0.658691,-0.44873,1,1,-4,-6,-15,-3,31,1,20137
-2.20337,0.645178,-1.17343,26.125,-73.8125,115.375,1.34668,-0.789551,-0.384766,-6,4,-2,-2,-9,-6,-20,-5,20154
-2.1689,0.718026,-1.1783,107.563,-111.563,176.563,2.67822,-0.810547,-0.216309,1,-8,0,-1,-11,4,-4,-2,20172
-2.1689,0.718026,-1.1783,107.563,-111.563,176.563,2.67822,-0.810547,-0.216309,1,-8,0,-1,-11,4,-4,-2,20189
-1.99448,0.929272,-1.09554,178.5,-236.313,233.625,3.30469,-0.819336,0.195313,22,-2,1,-5,-19,-3,48,4,20206
-1.91358,1.01806,-1.04603,114.375,-169,206,2.87891,-0.836914,-0.00585938,-1,-1,-1,-4,1,4,9,-5,20222
-1.91358,1.01806,-1.04603,114.375,-169,206,2.87891,-0.836914,-0.00585938,-1,-3,-2,2,8,-2,26,-1,20239
-1.86643,1.09309,-0.999668,19.625,-129.813,183.313,2.2583,-0.849121,0.39502,-2,3,-4,-4,-1,4,-9,-2,20256
-1.86643,1.09309,-0.999668,19.625,-129.813,183.313,2.2583,-0.849121,0.39502,-2,3,-4,-4,-1,4,-9,-2,20273
-1.69106,1.22765,-0.850786,39.125,-119.125,164.375,1.87402,-0.0581055,-0.0483398,3,1,3,2,-3,-3,4,-3,20290
-1.55827,1.28617,-0.720393,24.75,-123.063,163.188,1.43701,0.270508,0.0673828,2,1,1,1,-2,1,1,-2,20307
-1.55827,1.28617,-0.720393,24.75,-123.063,163.188,1.43701,0.270508,0.0673828,2,1,1,1,-2,1,1,-2,20324
-0.333584,1.33328,0.43038,43,-61.5625,40.8125,-0.0805664,0.772949,0.501953,6,1,-1,1,1,-1,-8,-2,20418
-0.218013,1.31501,0.540023,10.6875,-31.625,8.4375,-0.234375,0.752441,0.639648,-9,0,-2,-4,-2,-1,-1,0,20435
-0.178269,1.3055,0.578675,-7.8125,7.3125,-26.25,-0.164551,0.722656,0.643066,9,-4,2,-2,-2,-1,-3,0,20452
-0.194194,1.30822,0.567442,-29.5625,46,-55,-0.00195313,0.722656,0.546875,0,-4,-2,1,4,1,1,1,20469
-0.194194,1.30822,0.567442,-29.5625,46,-55,-0.00195313,0.722656,0.546875,8,0,-1,0,-3,-2,-5,-2,20486
-0.268192,1.32262,0.506342,-57.6875,74.75,-88.3125,0.179199,0.831543,0.334961,-5,12,1,0,3,5,15,0,20503
-0.484612,1.3391,0.315014,-90.8125,96.5,-116,0.254395,0.763184,0.240234,26,-25,3,6,11,7,9,5,20520
-0.817379,1.34358,0.0130992,-112.063,131,-153.563,0.97168,0.458984,-0.0200195,18,-7,-14,-11,-7,-5,-12,3,20538
-1.21391,1.31872,-0.349356,-126.688,171.875,-188.813,3.68213,-0.449219,-0.420898,-21,-32,1,-5,0,-1,-14,-1,20556
-1.21391,1.31872,-0.349356,-126.688,171.875,-188.813,3.68213,-0.449219,-0.420898,-12,25,23,11,2,0,9,-1,20572
-1.73858,1.16311,-0.847413,-9.5,207.563,-228.188,3.38867,-0.95459,-0.226074,2,-15,2,0,-7,-4,15,-2,20589
-1.84164,1.07222,-0.970506,22,207.313,-219.813,3.31885,-0.535156,-0.49707,-3,-16,-3,-1,-3,-3,0,-3,20607
-1.84164,1.07222,-0.970506,22,207.313,-219.813,3.31885,-0.535156,-0.49707,-7,15,1,-1,-5,-2,11,2,20625
-1.89775,0.97751,-1.04452,20.75,185.125,-227.125,3.19678,-0.477539,-0.437012,9,23,6,3,-5,-2,12,1,20641
-1.94369,0.892011,-1.08383,-41.0625,146.938,-207.188,2.47754,-0.183594,-0.395996,-15,-12,-5,0,-5,-3,-20,-3,20658
-1.9956,0.815684,-1.09081,-133.5,97.1875,-196.5,1.73535,-0.216797,-0.450195,2,6,6,-1,10,9,2,-1,20674
-2.19813,0.591269,-1.12056,13.6875,34.4375,-8.4375,0.0351563,-0.702148,-0.603027,-2,3,-1,-3,-3,-1,-2,-5,20771
-2.19834,0.578662,-1.13008,21.0625,21.9375,1.1875,-0.176758,-0.663086,-0.621582,-3,-3,0,-4,0,-3,-1,2,20788
-2.19834,0.578662,-1.13008,21.0625,21.9375,1.1875,-0.176758,-0.663086,-0.621582,4,-1,-2,-4,-5,-3,12,9,20805
-2.20669,0.57207,-1.14078,8.25,12.6875,8.9375,-0.276855,-0.592285,-0.760254,-5,-1,-3,-4,-3,-6,-5,-6,20821
-2.21604,0.565435,-1.15208,12.4375,2.875,18.3125,-0.15332,-0.643555,-0.944824,-4,-2,-3,-2,1,6,3,-6,20838
-2.22127,0.563731,-1.16353,24.0625,-16.25,44.125,0.102539,-0.718262,-0.99707,0,-1,-3,-1,-7,0,7,2,20856
-2.22413,0.578132,-1.17595,26.75,-38.9375,83.9375,0.185547,-0.640137,-0.819336,6,2,2,1,2,10,19,1,20873
-2.22035,0.615098,-1.1906,34.9375,-43.125,113.188,0.24707,-0.520508,-0.437988,-9,1,3,-1,4,-1,-14,-22,20890
-2.2099,0.64699,-1.20963,59.9375,-28.375,113.625,0.703125,-0.623047,-0.25,7,-6,4,-1,-5,-5,6,-3,20907
-2.2099,0.64699,-1.20963,59.9375,-28.375,113.625,0.703125,-0.623047,-0.25,-13,-2,-2,-7,-7,-10,-14,-6,20925
-2.18828,0.693789,-1.22317,85.9375,-54.25,126.563,2.2417,-0.862305,-0.384277,17,-7,2,4,-4,6,30,4,20942
-2.15543,0.75924,-1.23579,118.188,-83.75,169.75,2.6001,-0.546387,-0.0874023,-8,8,0,2,4,-11,-21,-7,20959
-2.08424,0.84626,-1.2131,157.125,-168.875,189.125,3.18652,-1.16846,0.0927734,1,7,-5,-3,-7,0,-5,7,20976
-2.01079,0.940377,-1.18476,147.25,-168.813,216.375,2.98291,-1.2251,0.134277,-5,1,-6,6,18,6,-9,5,20993
-1.95454,1.03309,-1.14588,67.875,-163,219.25,2.51416,-0.874023,0.361816,4,2,3,-2,-18,-16,29,2,21010
-1.86808,1.12448,-1.07963,80.375,-172.125,216.563,2.30566,-0.606445,0.325684,2,0,0,-3,-4,1,8,0,21027
-1.37715,1.35124,-0.608771,33.5,-151.25,197.625,1.46826,0.238281,0.216309,-4,-3,3,0,-10,-8,-2,-2,21092
-0.996713,1.38953,-0.235287,39.625,-150.313,176.688,1.04346,0.342773,0.259277,0,0,0,1,-2,2,-3,-2,21109
-0.996713,1.38953,-0.235287,39.625,-150.313,176.688,1.04346,0.342773,0.259277,-5,-3,0,2,0,-1,-3,-2,21127
-0.293632,1.36674,0.443586,45.4375,-118.125,98.875,0.268555,0.682617,0.312988,0,-3,-2,-3,0,-2,0,1,21143
-0.293632,1.36674,0.443586,45.4375,-118.125,98.875,0.268555,0.682617,0.312988,-3,-1,-3,-3,-1,-1,0,0,21161
-0.070539,1.33103,0.656172,33.375,-95,66.3125,-0.0205078,0.702148,0.443359,1,4,0,-2,-2,2,6,2,21178
0.0519858,1.29801,0.772065,16.6875,-62.25,35.0625,-0.262695,0.723633,0.564453,-16,-4,-2,-3,23,13,1,2,21195
0.115464,1.27533,0.832177,2.3125,-26.4375,2.5,-0.314941,0.776855,0.599609,2,-1,-2,2,5,-2,-13,-2,21212
0.141917,1.26934,0.860553,-17.875,12.25,-31.6875,-0.209473,0.878418,0.47998,-3,3,3,-3,-3,3,18,2,21230
0.141917,1.26934,0.860553,-17.875,12.25,-31.6875,-0.209473,0.878418,0.47998,-1,-3,-1,-3,-3,-3,-14,0,21247
-0.0268029,1.30237,0.727485,-89.875,74.5625,-116.563,0.233887,0.929688,0.294922,-3,-6,1,-9,-4,-2,10,2,21263
-0.0268029,1.30237,0.727485,-89.875,74.5625,-116.563,0.233887,0.929688,0.294922,10,3,1,-2,-25,-16,-13,-2,21280
-0.286114,1.33325,0.498256,-110.875,116.875,-160.688,0.599609,0.778809,0.0947266,1,7,-10,1,9,11,-31,-3,21297
-0.753274,1.35258,0.0702704,-143.063,183.875,-212.25,2.44629,0.221191,-0.168457,-12,-7,-8,-1,7,1,2,-2,21314
-1.33909,1.31654,-0.463922,-188.813,257.5,-264.313,2.57422,-1.08008,-0.110352,-2,-6,1,4,9,1,-6,-5,21331
-1.67774,1.23095,-0.767468,-137.688,238.438,-258.5,3.69727,-1.06006,-0.0380859,10,0,2,-7,-13,-8,32,-1,21348
-2.02739,0.951802,-1.10058,-48.6875,196.125,-191.75,2.51123,-0.44043,-0.0786133,-11,-1,-1,-1,-4,-12,0,-9,21408
-2.02739,0.951802,-1.10058,-48.6875,196.125,-191.75,2.51123,-0.44043,-0.0786133,12,0,0,2,4,5,-2,19,21425
-2.09646,0.86576,-1.14276,-102.625,182.125,-182.625,2.15918,-0.105957,-0.074707,-7,-3,-1,-2,-6,-6,-9,-13,21442
-2.18291,0.783764,-1.17146,-187.5,173.5,-168.063,1.76367,-0.128906,-0.263184,3,0,1,1,1,1,13,1,21459
-2.26765,0.702989,-1.1889,-208.75,155.563,-142.438,1.32373,-0.474609,-0.386719,-1,0,0,-2,-2,0,-1,-4,21477
-2.3363,0.64153,-1.19874,-180.375,120.875,-100.438,0.740723,-0.76709,-0.611816,-1,1,1,-2,-2,2,4,9,21494
-2.37883,0.59766,-1.21012,-103.375,97,-58.875,0.321777,-0.800781,-0.794922,4,-2,0,2,0,-1,-2,9,21511
-2.38484,0.561957,-1.22171,4.375,55.875,-17.75,0.0341797,-0.83252,-0.959961,1,-2,5,2,3,-2,-7,-3,21529
-2.38484,0.561957,-1.22171,4.375,55.875,-17.75,0.0341797,-0.83252,-0.959961,1,-2,0,-2,-2,-1,-3,-5,21546
-2.36606,0.542498,-1.22986,82.6875,14.9375,-1,-0.0463867,-0.706543,-1.11182,1,0,-1,-4,1,-1,3,0,21564
-2.32877,0.540206,-1.22342,103.125,-16,-11.375,-0.194824,-0.729004,-1.23193,3,-2,-1,-1,-1,0,13,7,21581
-2.30091,0.5313,-1.21617,96.3125,-31.8125,-16.0625,-0.224609,-0.724121,-1.24707,2,-1,-2,-2,-3,-4,-2,-4,21598
-2.28698,0.523196,-1.21378,63.3125,-35.6875,8.125,0.133789,-0.665039,-1.16309,-3,-2,-3,0,1,-1,-4,-2,21615
-2.29363,0.525575,-1.22256,15.0625,-37.625,57.125,0.390625,-0.568359,-0.97168,-8,-1,-3,0,-4,-6,-14,-2,21633
-2.30768,0.541138,-1.23297,-19.875,-53,92.875,0.446289,-0.630371,-0.686035,13,1,-2,-3,-4,-2,8,2,21650
-2.30768,0.541138,-1.23297,-19.875,-53,92.875,0.446289,-0.630371,-0.686035,-8,1,-8,2,2,-6,-15,-5,21667
-2.12951,0.866163,-1.18758,205.125,-235.875,231,3.19238,-1.09082,0.250977,0,-3,3,0,14,12,5,6,21746
-2.12951,0.866163,-1.18758,205.125,-235.875,231,3.19238,-1.09082,0.250977,-2,1,1,-1,-6,-2,2,-1,21763
-2.01422,0.971,-1.13881,219.188,-219.313,222.75,2.84766,-1.1333,0.0786133,0,1,-3,0,11,1,-19,-3,21780
-1.92616,1.06675,-1.08172,112.813,-185.75,219.875,2.33691,-0.163086,0.351563,-4,-6,-1,-1,-5,-3,1,-2,21797
-1.82269,1.1515,-0.998719,83.4375,-173.625,200,2.03662,-0.238281,0.141113,1,-3,0,1,-4,0,10,-1,21814
-1.69683,1.22934,-0.879727,43.75,-166.313,194.313,1.93408,-0.113281,-0.0078125,1,-2,0,1,-4,-4,8,-2,21831
-1.69683,1.22934,-0.879727,43.75,-166.313,194.313,1.93408,-0.113281,-0.0078125,-5,-3,-2,-1,-2,1,-3,0,21847
-1.51283,1.29688,-0.698452,32.125,-163.938,186.938,1.55811,0.14209,0.0810547,7,13,9,1,1,-2,0,3,21864
-1.21156,1.34357,-0.405218,47.3125,-170.313,173.25,1.23975,0.268555,0.222168,-2,-7,-3,2,0,4,-2,0,21881
-0.822687,1.35792,-0.0475562,112.125,-160.5,148.5,0.768555,0.307129,0.367188,-2,-1,0,1,-12,-2,0,-2,21898
-0.505903,1.34685,0.227168,136.625,-123.688,106.438,0.29834,0.521973,0.291504,2,-2,1,-1,4,-3,-4,0,21915
-0.301355,1.32785,0.396752,109.25,-86.875,67.125,0.0966797,0.916504,0.399902,3,4,1,-1,-1,-2,7,-1,21932
-0.0934908,1.30448,0.577718,73.25,-55.9375,42.0625,-0.11084,1.09326,0.538574,-4,-5,-5,-3,6,2,2,-1,21949
-0.0934908,1.30448,0.577718,73.25,-55.9375,42.0625,-0.11084,1.09326,0.538574,5,-1,-2,-1,-5,-3,9,0,21966
0.031435,1.28317,0.691417,22.75,-24.375,11.6875,-0.237793,1.13379,0.663086,-1,-1,1,-4,0,-4,0,1,21983
0.0646638,1.27221,0.732441,-39.75,10.875,-40.25,-0.212891,1.14307,0.675781,7,-2,4,-4,-10,-1,-11,-2,22000
-1.40123,1.2529,-0.516108,-206.563,242.938,-299.563,2.95215,0.0986328,-0.254883,-5,-2,7,0,6,1,-19,-2,22104
-1.74159,1.15503,-0.801437,-210.688,293.188,-277.688,3.1499,-0.770508,-0.046875,-6,0,-1,-7,7,8,16,-10,22120
-1.93562,1.03864,-0.952771,-169.438,279.438,-269.063,4.57227,-0.965332,-0.0449219,35,-1,-1,-5,-7,-1,15,23,22137
-2.0363,0.927386,-1.05024,-55.9375,270.625,-229,4.2666,-1.25195,-0.54248,6,2,2,2,-12,0,29,-5,22155
-2.08424,0.840386,-1.10148,-23.75,199.188,-176.25,3.31445,-0.873535,-0.460938,-4,2,-1,4,12,3,10,-1,22171
-2.11532,0.770934,-1.12503,-40.5,140.938,-148.188,2.32813,-0.419434,-0.533691,1,1,-1,4,5,0,13,7,22188
-2.11532,0.770934,-1.12503,-40.5,140.938,-148.188,2.32813,-0.419434,-0.533691,4,-1,0,-2,5,-7,0,-1,22205
-2.17553,0.713219,-1.13068,-161.438,100,-132.438,1.66992,0.0883789,-0.393066,-1,-2,2,5,12,4,8,-3,22223
-2.26168,0.658925,-1.13497,-235.25,84.375,-101.375,1.26465,-0.328125,-0.633301,5,0,-1,4,-7,1,3,-6,22240
-2.33722,0.613989,-1.14435,-201.688,87.625,-65.0625,0.878906,-0.727051,-0.608398,0,0,1,-5,-5,4,5,-2,22257
-2.37884,0.578301,-1.15714,-100.313,82,-36.9375,0.59082,-0.79834,-0.641602,-3,-1,1,-6,0,1,-3,0,22275
-2.3809,0.551247,-1.16211,-2.625,31.625,-10.0625,0.21875,-0.708496,-0.635254,-4,-3,-2,-3,1,-1,1,-2,22292
-2.36026,0.547383,-1.16164,61.375,-13.75,8.9375,-0.0605469,-0.553711,-0.635742,-1,-2,1,-1,3,-1,2,-3,22309
-2.36026,0.547383,-1.16164,61.375,-13.75,8.9375,-0.0605469,-0.553711,-0.635742,-3,-1,0,-1,-1,0,-1,0,22326
-2.33741,0.55263,-1.15404,69.6875,-40.25,0.9375,-0.271484,-0.409668,-0.753906,0,-1,-2,0,1,-1,5,4,22343
-2.31383,0.55614,-1.13755,61.1875,-58.875,-12.5625,-0.303711,-0.553711,-0.933594,5,-2,-1,-1,12,13,4,5,22359
-2.25376,0.606267,-1.15703,48.625,-62,107.563,0.270996,-0.527832,-0.62207,7,-3,-2,-11,-14,0,22,3,22437
-2.24661,0.643092,-1.1665,33.8125,-59.0625,110.875,0.745605,-0.666504,-0.310547,-43,-1,-10,12,17,-14,-79,-12,22455
-2.22425,0.687279,-1.16833,67.3125,-74.6875,102.313,2.12646,-0.912598,-0.399902,-9,-1,-4,-12,-21,-2,-16,-3,22472
-2.16787,0.776628,-1.16534,155.938,-155.313,203.688,2.77734,-0.947266,-0.101074,11,-2,4,3,-11,6,22,2,22490
-2.16787,0.776628,-1.16534,155.938,-155.313,203.688,2.77734,-0.947266,-0.101074,14,-6,-5,-4,-9,2,16,5,22507
-1.93577,1.00182,-1.09984,257.875,-194.5,272,3.59717,-0.937988,0.133789,-9,-2,-1,-3,2,-8,-4,-1,22524
-1.93577,1.00182,-1.09984,257.875,-194.5,272,3.59717,-0.937988,0.133789,4,0,1,1,16,6,-7,-2,22541
-1.86985,1.10376,-1.05588,79.5,-154.375,255.688,2.69434,-0.41748,0.320313,15,5,-2,6,2,-2,-13,0,22558
-1.78759,1.19045,-0.986654,54.6875,-142.25,219.625,1.99707,-0.435059,0.228027,2,-1,2,0,-1,-4,17,1,22575
-1.68683,1.2626,-0.885658,16.1875,-130.5,187.25,2.14404,-0.341309,-0.0332031,-1,-3,-4,-3,-7,4,-10,-1,22592
-1.52875,1.32845,-0.726252,12.875,-131,183.688,1.55859,-0.146973,0.162598,-4,-1,0,1,3,3,2,0,22609
-1.52875,1.32845,-0.726252,12.875,-131,183.688,1.55859,-0.146973,0.162598,1,3,-3,-1,-5,2,1,-1,22626
-1.22174,1.37693,-0.43264,57.375,-147,171.375,1.19189,0.115234,0.187012,-3,-4,0,-2,0,-1,-1,-1,22643
-0.794297,1.39651,-0.0324713,96.3125,-142.75,151.438,0.964844,0.499023,0.17334,2,-2,1,-2,3,-2,-1,-1,22660
-0.413402,1.38949,0.321161,91.9375,-113.625,124.375,0.631836,0.724121,0.160156,-6,-2,-2,0,-1,-2,-1,0,22677
-0.0758315,1.36424,0.640617,56.1875,-88.5,94.5,0.20459,0.886719,0.297852,7,-1,-1,-1,0,-3,2,-1,22694
0.223455,1.26931,0.9275,-26,-8.4375,-28.4375,-0.19873,0.941895,0.73584,-13,-1,1,1,1,-1,-7,-4,22759
0.202728,1.27096,0.924808,-68.625,40.75,-67.0625,-0.0859375,0.963867,0.595703,4,-1,0,-1,3,0,-3,-1,22777
0.0738888,1.3018,0.825741,-101.313,84.3125,-107.313,0.0922852,0.974121,0.459473,1,1,4,-5,-6,-4,-5,-2,22794
-0.159414,1.33948,0.62834,-123.875,120.063,-149.313,0.298828,0.833984,0.342285,2,14,1,-2,-7,-1,12,-2,22811
-0.567233,1.3719,0.263198,-147.813,167.438,-184.438,0.763184,0.608887,0.0585938,3,-4,-4,7,-9,-11,-13,-9,22827
-0.567233,1.3719,0.263198,-147.813,167.438,-184.438,0.763184,0.608887,0.0585938,-17,0,-3,-12,-18,1,-9,1,22844
-1.18162,1.3583,-0.306198,-161.875,229.063,-240.063,2.81396,0.416992,-0.384277,7,-1,-1,-3,-14,-6,33,-2,22860
-1.18162,1.3583,-0.306198,-161.875,229.063,-240.063,2.81396,0.416992,-0.384277,-20,0,7,-6,-13,-5,-22,-3,22877
-1.96416,1.14231,-0.996886,-157.5,298.313,-293.563,3.53271,-0.856445,-0.169434,11,-8,-2,2,-3,-10,11,-1,22895
-1.96416,1.14231,-0.996886,-157.5,298.313,-293.563,3.53271,-0.856445,-0.169434,11,-8,-2,2,-3,-10,11,-1,22911
-2.04694,1.01928,-1.08346,-17.8125,254.563,-271.125,3.52686,-1.19434,-0.285156,11,-3,0,2,-3,-2,10,-7,22928
-2.07307,0.797374,-1.15878,46.6875,191.375,-238.688,2.92627,-0.0742188,-0.542969,-5,1,-2,4,-9,-9,-11,-1,22945
-2.07307,0.797374,-1.15878,46.6875,191.375,-238.688,2.92627,-0.0742188,-0.542969,0,-2,2,2,12,-12,-11,1,22962
-2.09599,0.707039,-1.16474,-54.0625,138.125,-219.5,2.32471,0.0566406,-0.395508,-13,-3,-2,4,-5,-3,-6,-1,22979
-2.09599,0.707039,-1.16474,-54.0625,138.125,-219.5,2.32471,0.0566406,-0.395508,5,0,1,5,5,-4,-3,-4,22995
-2.21223,0.564588,-1.13816,-197.688,72.375,-158.875,1.06055,-0.754395,-0.446777,2,0,-3,-2,-5,-2,0,-4,23012
-2.22627,0.448743,-1.09926,23.4375,3.5625,-36.5625,0.0566406,-0.928223,-0.471191,0,-1,-1,-1,3,-4,-5,-5,23086
-2.1974,0.443077,-1.09321,64.5625,-14.6875,2.0625,-0.109375,-1.00293,-0.518066,2,-2,-2,-3,-6,0,9,2,23103
-2.16809,0.445259,-1.09054,80.0625,-22.5625,20.0625,-0.116699,-0.845215,-0.5625,-2,-2,-2,-3,-1,-4,0,-5,23121
-2.14735,0.447661,-1.08847,66.1875,-28.125,24.75,-0.0712891,-0.842285,-0.727051,1,2,2,-2,-4,3,2,-10,23137
-2.14558,0.449699,-1.09569,36.3125,-24.5625,52.625,0.198242,-0.885254,-0.984863,4,-4,-5,-4,-8,-1,7,5,23155
-2.14529,0.481355,-1.11084,26.375,-27,106.5,0.346191,-0.65918,-0.901855,6,-7,2,-2,-4,-4,-15,-1,23172
-2.15091,0.528222,-1.13185,16.1875,-37.4375,150.813,0.361816,-0.581543,-0.61084,-5,-1,-11,-8,-5,2,2,1,23189
-2.15091,0.528222,-1.13185,16.1875,-37.4375,150.813,0.361816,-0.581543,-0.61084,-6,-1,0,5,2,-3,-2,2,23205
-2.16244,0.580839,-1.15216,-2.625,-50.5625,166,0.518066,-0.693848,-0.460938,-5,1,-4,5,-5,-2,-27,-5,23222
-2.16806,0.641528,-1.16959,12.6875,-63.4375,166.625,1.33984,-0.789063,-0.374023,17,-5,-5,0,0,2,31,9,23239
-2.14965,0.716621,-1.18104,73.4375,-98.125,193.375,2.79297,-0.733887,-0.322266,1,-4,1,-5,-8,-6,-7,-5,23256
-2.10511,0.821904,-1.18084,127.188,-160.125,256.188,3.13721,-0.686035,-0.0424805,3,1,2,0,2,-9,-10,-3,23272
-2.01189,0.940142,-1.15039,199.563,-207.938,273.438,3.54102,-0.780273,0.256348,-7,0,-8,-3,-19,-2,-19,0,23290
-2.01189,0.940142,-1.15039,199.563,-207.938,273.438,3.54102,-0.780273,0.256348,1,4,0,5,11,6,9,-2,23307
-1.92077,1.04947,-1.10808,159.313,-182.063,264.063,3.06543,-0.801758,0.116211,-15,-2,-5,-2,0,1,-5,-6,23324
-1.83766,1.15076,-1.0384,59.875,-174.188,248.75,2.40723,-0.335938,0.348633,-4,-2,1,-2,2,-6,-1,-2,23341
-0.486521,1.38843,0.273263,70.3125,-142.25,129.938,0.783691,0.437012,0.167969,1,-7,-5,-3,-1,-1,1,0,23437
-0.213793,1.36182,0.527591,63.6875,-114.25,96.4375,0.462402,0.661621,0.183594,-4,5,5,2,0,-2,-5,-2,23454
0.0176594,1.3301,0.739687,58.625,-82.0625,73.125,0.0742188,0.790039,0.304199,7,-1,-3,-2,-1,-2,-1,0,23472
0.0176594,1.3301,0.739687,58.625,-82.0625,73.125,0.0742188,0.790039,0.304199,-3,5,2,-2,-2,2,-1,1,23489
0.169373,1.27591,0.884957,-10.6875,-31.625,-0.125,-0.238281,0.641602,0.491211,-7,-7,-2,-2,0,-2,0,1,23506
0.169373,1.27591,0.884957,-10.6875,-31.625,-0.125,-0.238281,0.641602,0.491211,-2,2,-1,-3,-4,-4,0,0,23524
0.184156,1.26484,0.900523,-12.875,0.125,-25.75,-0.148438,0.681152,0.476563,-8,-1,2,-5,-4,3,8,0,23542
0.180463,1.26739,0.898351,-20.625,33.0625,-59.5625,-0.115234,0.859863,0.434082,-2,-4,2,-1,3,-1,-8,-2,23559
0.0727817,1.28873,0.805233,-57.375,56.25,-100.313,0.0712891,0.966309,0.328613,-12,-2,-2,-2,-10,-7,14,-1,23576
-0.118963,1.31446,0.641379,-101.625,83.125,-138.125,0.223145,0.915039,0.305664,4,0,-8,-4,-10,-5,-1,2,23593
-0.118963,1.31446,0.641379,-101.625,83.125,-138.125,0.223145,0.915039,0.305664,-8,3,-5,6,12,-3,-31,-3,23610
-0.929673,1.32836,-0.0962038,-152.188,172,-249.5,3.02295,0.274414,-0.291992,-3,1,2,0,5,5,6,1,23626
-0.929673,1.32836,-0.0962038,-152.188,172,-249.5,3.02295,0.274414,-0.291992,13,1,4,0,1,-4,18,0,23644
-1.42064,1.2708,-0.544006,-169.688,253.75,-279.813,2.97852,-0.89209,0.00878906,4,-4,-3,-3,-4,1,-21,-4,23661
-1.68706,1.17902,-0.78589,-110.063,230.188,-265.875,3.57861,-1.10693,0.151855,8,1,1,-6,-9,-1,17,-3,23679
