roll,pitch,yaw, gyro_x, gyro_y, gyro_z, accel_x, accel_y, accel_z, EMG0, EMG1, EMG2, EMG3, EMG4, EMG5, EMG6, EMG7, time
0.132285,-1.06869,3.0539,72.875,19.875,1,1.01172,0.254883,0.755859,0,0,0,0,0,0,0,0,299
0.160165,-1.06133,3.05007,65,2.6875,3.1875,0.926758,0.273926,0.785156,0,0,0,0,0,0,0,0,318
0.160165,-1.06133,3.05007,65,2.6875,3.1875,0.926758,0.273926,0.785156,0,0,0,0,0,0,0,0,333
0.179505,-1.05894,3.04793,48.3125,-11.4375,2.4375,0.786133,0.189453,0.72998,0,0,0,0,0,0,0,0,350
0.192879,-1.06226,3.04456,27.6875,-25.1875,3.3125,0.874512,0.195313,0.711914,0,0,0,0,0,0,0,0,367
0.195959,-1.0618,3.04002,-4.6875,-28,3.4375,1.25146,0.293945,1.14063,0,0,0,0,0,0,0,0,384
0.195959,-1.0618,3.04002,-4.6875,-28,3.4375,1.25146,0.293945,1.14063,0,0,0,0,0,0,0,0,400
0.148873,-1.07597,3.05385,-57.125,-45.5,24,0.356934,0.0366211,0.180176,0,0,0,0,0,0,0,0,417
0.148873,-1.07597,3.05385,-57.125,-45.5,24,0.356934,0.0366211,0.180176,0,0,0,0,0,0,0,0,433
0.121718,-1.08537,3.06589,-47.8125,-40,22.4375,1.64111,0.144531,1.10352,0,0,0,0,0,0,0,0,449
0.121718,-1.08537,3.06589,-47.8125,-40,22.4375,1.64111,0.144531,1.10352,0,0,0,0,0,0,0,0,466
0.0962949,-1.10123,3.08303,-24.1875,-27.6875,15.5625,0.453125,-0.165527,-0.0175781,0,0,0,0,0,0,0,0,483
0.0894177,-1.09929,3.08939,-2.375,-13.75,7.5,1.3833,0.0595703,1.01611,-2,2,-2,-1,-2,-2,-2,-2,500
0.0894177,-1.09929,3.08939,-2.375,-13.75,7.5,1.3833,0.0595703,1.01611,2,4,1,2,2,6,4,-2,517
0.0857186,-1.11103,3.09427,3.3125,-4.5,4.5,0.316895,-0.0639648,-0.306152,7,11,2,0,0,0,-3,-3,534
0.079023,-1.10197,3.09721,-12.125,5.1875,3.5,0.967773,0.0698242,0.826172,-4,-5,0,-1,0,-1,-1,3,550
0.0552544,-1.1202,3.11415,-9.125,11.0625,13.25,0.57373,0.0136719,-0.161133,3,5,1,1,-1,-2,1,2,613
0.0368644,-1.12428,3.12934,-4.75,13.0625,1.125,0.696777,-0.0615234,0.0664063,5,2,-1,0,2,6,0,-4,629
0.0368644,-1.12428,3.12934,-4.75,13.0625,1.125,0.696777,-0.0615234,0.0664063,-6,-9,-14,-2,1,16,-1,16,646
0.0353657,-1.12534,3.12694,-12.4375,10.25,0.9375,0.745605,0.0712891,0.138672,-7,-1,-4,-4,-3,-2,-1,49,663
0.0334876,-1.12763,3.12405,-15.5,6,0.9375,0.772949,0.081543,0.17627,-7,-18,-1,0,1,11,3,-9,680
0.0278501,-1.12872,3.12339,-20.0625,6.125,4.0625,0.820313,0.0839844,0.240723,2,11,1,-1,-3,-3,1,3,696
0.0278501,-1.12872,3.12339,-20.0625,6.125,4.0625,0.820313,0.0839844,0.240723,32,42,8,3,1,-5,-2,-7,713
0.0243622,-1.12753,3.12317,-12.625,8.25,3.4375,0.834473,0.074707,0.319336,-41,-8,9,2,-1,2,-4,-23,730
0.0257569,-1.12679,3.12345,2.6875,3.5625,4.625,0.897949,0.0742188,0.403809,-6,-1,5,1,1,0,-2,-7,748
0.0354021,-1.12698,3.12328,26,1.75,2.1875,1.0127,0.0546875,0.446777,-7,2,-21,-4,-1,-1,1,-3,765
0.0546584,-1.12154,3.11954,42.3125,14.375,1.625,1.10205,0.138672,0.543457,-7,2,-21,-4,-1,-1,1,-3,783
0.0546584,-1.12154,3.11954,42.3125,14.375,1.625,1.10205,0.138672,0.543457,-16,-2,-3,-6,-3,-1,1,-2,799
0.0867855,-1.09691,3.12907,54.5625,30.9375,15.625,1.0752,0.138672,0.658203,-16,-2,-3,-6,-3,-1,1,-2,815
0.0964921,-1.08492,-3.14056,65.4375,32.1875,8.5,1.15039,-0.0405273,0.663574,-2,4,6,12,0,19,1,2,832
0.119578,-1.0675,-3.13264,86,56.1875,4.9375,1.09375,0.0664063,0.513672,0,-4,14,16,-1,12,2,1,849
0.119578,-1.0675,-3.13264,86,56.1875,4.9375,1.09375,0.0664063,0.513672,1,-3,0,-12,5,-16,1,1,866
0.201102,-1.02099,-3.1159,74.4375,38.125,32.625,1.01367,0.297363,0.34375,1,-6,-12,-7,-14,1,-1,0,928
0.219051,-1.02018,-3.10122,84.75,28.5,20.75,1.13672,0.14209,0.322754,6,3,3,0,-4,3,-1,-3,946
0.247375,-1.01653,-3.09994,80.8125,30.3125,0.5625,1.15527,0.186523,0.369629,-64,-11,5,12,2,3,-5,-22,963
0.26145,-1.00622,-3.09342,55.0625,44,0.375,1.11475,0.15332,0.462402,-1,13,11,17,2,-1,4,10,982
0.260421,-0.99257,-3.07554,42.75,50.625,11.125,1.05176,0.0800781,0.563477,63,-23,-7,-10,-12,-16,-35,-62,999
0.26018,-0.979906,-3.05774,44.9375,43,12.5625,0.965332,0.0771484,0.613281,102,5,-17,-34,-3,-3,26,11,1016
0.26018,-0.979906,-3.05774,44.9375,43,12.5625,0.965332,0.0771484,0.613281,19,1,-9,-5,-10,-11,-7,3,1033
0.277355,-0.974516,-3.04462,81.6875,19.125,14.25,0.911133,0.13916,0.620605,-16,-5,-3,-3,-5,-3,-8,12,1049
0.302635,-0.972992,-3.04393,71.375,5.375,3.875,0.859375,0.244141,0.547363,-50,-7,-16,-20,-4,-7,-1,-1,1066
0.302635,-0.972992,-3.04393,71.375,5.375,3.875,0.859375,0.244141,0.547363,3,-7,13,37,-8,-1,-2,-14,1083
0.339668,-0.967675,-3.06364,22.1875,-6.0625,-21.5625,0.525879,0.0654297,0.479492,18,5,2,4,2,6,12,9,1100
0.352592,-0.965389,-3.07196,22.9375,-9.25,-19.9375,0.417969,0.0200195,0.464355,-14,-12,-5,1,4,4,8,-8,1116
0.352592,-0.965389,-3.07196,22.9375,-9.25,-19.9375,0.417969,0.0200195,0.464355,-6,7,14,8,5,7,-4,-1,1132
0.366059,-0.963445,-3.07949,23.125,-11.8125,-12.0625,0.419922,0.123535,0.484375,-14,1,-1,-8,-4,-2,1,-3,1149
0.373575,-0.962895,-3.08485,11.875,-12.4375,-9.125,0.432617,0.106445,0.471191,3,-1,-1,-8,-7,-3,-2,5,1166
0.381618,-0.959131,-3.09057,15.25,-9.375,-15.6875,0.361816,0.0449219,0.513672,-17,-4,-2,6,-2,-4,-10,-17,1183
0.453368,-0.929821,-3.11754,45.375,5.1875,-19.3125,0.291992,0.145996,0.583496,-58,-6,7,-8,-5,-1,-3,-12,1261
0.464621,-0.912217,-3.11937,34.4375,17.0625,-21.5625,0.260742,0.161133,0.664063,-58,-6,7,-8,-5,-1,-3,-12,1279
0.464621,-0.912217,-3.11937,34.4375,17.0625,-21.5625,0.260742,0.161133,0.664063,19,8,1,-2,3,0,0,3,1296
0.470957,-0.891099,-3.11736,28.875,29.75,-19.875,0.304199,0.189453,0.694336,-5,5,-1,-2,1,-3,-2,-5,1314
0.470957,-0.891099,-3.11736,28.875,29.75,-19.875,0.304199,0.189453,0.694336,2,-32,-5,3,0,-1,4,3,1331
0.476874,-0.832079,-3.11489,19.3125,54.75,-40,0.410645,0.229492,0.855469,2,-32,-5,3,0,-1,4,3,1348
0.481648,-0.795895,-3.11529,22.0625,64.5625,-45.0625,0.410156,0.257324,0.89502,-14,-2,-14,-12,-1,1,1,-5,1364
0.48446,-0.756464,-3.11492,15.5625,70.625,-44.3125,0.450684,0.38623,1.03564,1,-9,-5,-9,-2,-1,-2,-4,1380
0.48446,-0.756464,-3.11492,15.5625,70.625,-44.3125,0.450684,0.38623,1.03564,0,14,19,-1,0,-2,-2,0,1398
0.48443,-0.71573,-3.11947,-8.8125,66.5625,-46.0625,0.517578,0.63623,1.21729,11,-1,-13,-3,-1,2,0,-4,1415
0.478568,-0.685853,-3.12473,-28.5,48.75,-36.1875,0.622559,0.646484,1.1543,3,-6,0,23,5,4,-6,-5,1432
0.471543,-0.664406,-3.12766,-16.4375,43.6875,-38.125,0.72998,0.331055,1.00977,1,-14,37,15,4,-1,5,-4,1449
0.473409,-0.638297,-3.13832,-6.625,57.8125,-62.4375,0.732422,0.29248,0.832031,-26,10,-40,-4,0,3,-1,-4,1467
0.479355,-0.603471,3.12454,-24.375,68.25,-82.6875,0.655273,0.566406,0.808105,-22,17,5,14,4,3,-4,-4,1484
0.474869,-0.565025,3.1033,-61.375,76.6875,-85.9375,0.665527,0.73877,0.886719,-4,9,-5,-3,-1,-4,3,-3,1500
0.474869,-0.565025,3.1033,-61.375,76.6875,-85.9375,0.665527,0.73877,0.886719,14,3,-6,-10,-5,-8,-11,2,1517
0.413468,-0.458245,3.0564,-40.25,77.75,-43.5,0.881836,0.437988,0.683594,14,-7,-21,-13,-3,-3,5,6,1579
0.410093,-0.429084,3.04519,-33.5,89.375,-65.625,0.713379,0.435059,0.597656,-6,-8,-12,-4,-3,-5,-6,2,1596
0.410093,-0.429084,3.04519,-33.5,89.375,-65.625,0.713379,0.435059,0.597656,-7,-10,-4,-1,2,2,5,3,1614
0.408395,-0.393593,3.0305,-31,91.875,-77.75,0.480957,0.394531,0.54834,0,-8,-2,4,-1,4,10,-3,1631
0.404557,-0.35709,3.01801,-30.5,91.9375,-72.875,0.349121,0.32373,0.500977,6,9,13,8,7,8,3,-1,1648
0.398051,-0.32178,3.00832,-32.875,91.4375,-65.4375,0.296387,0.265625,0.436035,14,7,8,5,5,9,9,-5,1666
0.389225,-0.286817,2.9996,-38.5,90.3125,-61.5625,0.239746,0.255371,0.397461,23,9,12,9,5,3,2,0,1683
0.389225,-0.286817,2.9996,-38.5,90.3125,-61.5625,0.239746,0.255371,0.397461,11,6,-5,-4,-4,-6,1,1,1701
0.365305,-0.224761,2.98535,-46.875,74.9375,-47.0625,0.149414,0.234863,0.375977,1,-1,-4,-7,-7,-5,-4,2,1718
0.351605,-0.201316,2.98131,-46.125,61.9375,-34.25,0.130859,0.214844,0.400391,-2,-5,-2,1,-5,-5,-19,-2,1736
0.351605,-0.201316,2.98131,-46.125,61.9375,-34.25,0.130859,0.214844,0.400391,-6,-1,-5,-2,-2,-2,5,6,1753
0.34241,-0.185102,2.98032,-29.9375,46.9375,-19.5,0.15625,0.208984,0.450684,-28,-4,-1,-2,1,-3,-4,-12,1771
0.338692,-0.17548,2.98191,-19.1875,38.125,-6.9375,0.26709,0.327148,0.525391,26,0,-2,-3,-3,-3,6,4,1788
0.335168,-0.169585,2.98417,-24.0625,26.5,0.25,0.229004,0.432129,0.570801,8,-2,-4,-6,-5,-2,0,0,1805
0.324792,-0.172509,2.99131,-35.3125,15.5625,17.75,0.395996,0.383789,0.736816,-3,-5,-17,6,5,0,-4,0,1823
0.31564,-0.186789,3.00287,-27.625,-5.8125,37.5625,0.514648,0.376953,0.824707,2,-6,-5,-1,0,-2,-10,-3,1840
0.318472,-0.246087,3.03898,22.6875,-37.375,47.6875,0.782715,0.498535,1.20752,5,1,-2,-6,2,4,5,2,1910
0.318472,-0.246087,3.03898,22.6875,-37.375,47.6875,0.782715,0.498535,1.20752,-6,-1,0,1,4,3,-5,-4,1928
0.341051,-0.295311,3.06572,23.4375,-57.625,68.4375,0.292969,0.432129,1.26465,20,10,3,1,5,1,3,1,1945
0.343907,-0.33069,3.08654,44.0625,-64,77.0625,0.671875,0.195801,1.31592,31,1,5,4,-1,2,-1,2,1963
0.343907,-0.33069,3.08654,44.0625,-64,77.0625,0.671875,0.195801,1.31592,-7,-11,-12,-13,-7,-4,1,1,1980
0.343907,-0.33069,3.08654,44.0625,-64,77.0625,0.671875,0.195801,1.31592,-34,-20,-50,-34,-24,-29,-8,7,1998
0.376606,-0.404119,3.11668,68.6875,-50.4375,55.5,0.981445,0.373047,1.12598,-6,-21,-38,-37,-24,-30,-7,18,2015
0.375123,-0.448202,-3.13686,20.375,-40.875,48.5625,0.495605,0.169434,1.36035,17,-16,-11,-9,-1,3,-7,5,2032
0.375123,-0.448202,-3.13686,20.375,-40.875,48.5625,0.495605,0.169434,1.36035,66,74,106,93,51,70,11,-45,2049
0.374236,-0.469241,-3.12402,26.0625,-49.25,48.5,0.521484,0.23877,1.13135,-9,77,89,76,37,45,11,-49,2067
0.383389,-0.489786,-3.11386,41,-54.5625,48.4375,0.387695,0.359375,0.955566,-77,25,13,9,-4,-15,5,-14,2085
0.392435,-0.510694,-3.1027,42.375,-54.1875,51.8125,0.361328,0.341309,0.86084,-72,-93,-86,-78,-48,-63,-9,38,2102
0.400507,-0.531405,-3.09156,40.4375,-53.3125,51.1875,0.309082,0.287109,0.75,35,-94,-92,-78,-41,-55,-9,45,2119
0.400507,-0.531405,-3.09156,40.4375,-53.3125,51.1875,0.309082,0.287109,0.75,73,-24,-27,-21,-7,-6,-8,16,2135
0.405539,-0.549392,-3.08054,34.4375,-48.375,47.8125,0.248047,0.228516,0.690918,37,7,-8,-8,3,4,-6,6,2151
0.409016,-0.564605,-3.07022,30.75,-45.625,43.375,0.158691,0.185059,0.637695,-36,22,13,10,6,9,0,-7,2168
0.422603,-0.601273,-3.04291,32.5,-39.125,34.125,0.0610352,0.166016,0.578125,-7,4,-8,-9,-8,-7,-7,5,2231
0.426106,-0.608966,-3.03578,26.8125,-35.1875,30.5,0.0400391,0.178711,0.606445,-7,4,-8,-9,-8,-7,-7,5,2248
0.426106,-0.608966,-3.03578,26.8125,-35.1875,30.5,0.0400391,0.178711,0.606445,19,-9,-9,-9,-4,-5,-5,-4,2264
0.429275,-0.61466,-3.02867,25.5625,-31.1875,28.6875,0.0375977,0.194824,0.624023,14,-6,-3,4,1,-1,1,-1,2282
0.432871,-0.618435,-3.02302,25.3125,-29.3125,23.375,0.0390625,0.19873,0.66748,-2,-4,-12,-6,-2,-1,3,-3,2299
0.432871,-0.618435,-3.02302,25.3125,-29.3125,23.375,0.0390625,0.19873,0.66748,8,7,17,9,1,2,-2,-3,2316
0.443294,-0.613148,-3.01799,14,-11.0625,-3.3125,0.179199,0.26416,0.839355,18,-5,-19,-11,3,1,4,3,2333
0.443294,-0.613148,-3.01799,14,-11.0625,-3.3125,0.179199,0.26416,0.839355,-7,2,2,6,2,0,1,0,2350
0.44656,-0.600275,-3.02316,5.5,4.25,-19.1875,0.231934,0.34082,0.904297,-28,5,0,-3,-4,0,0,-12,2367
0.450214,-0.581966,-3.03102,0.4375,18.3125,-31.6875,0.296875,0.406738,0.940918,8,-14,-1,-3,-2,-3,-3,4,2384
0.454021,-0.559347,-3.0406,-4.6875,31,-40.1875,0.361328,0.484375,0.972168,-1,-4,2,5,-1,-3,-2,-1,2400
0.45751,-0.531641,-3.05194,-4.875,40.125,-51.9375,0.342773,0.479492,1.04639,5,0,1,-2,0,-1,1,1,2417
0.45751,-0.531641,-3.05194,-4.875,40.125,-51.9375,0.342773,0.479492,1.04639,-8,1,-13,0,-1,-5,-2,-1,2435
0.464811,-0.498686,-3.06747,-1.9375,41.625,-63.6875,0.276367,0.61377,1.21191,4,12,5,4,-5,-4,-2,2,2452
0.473957,-0.469258,-3.08449,-2.4375,33.375,-61.8125,0.314453,0.741211,1.24707,-6,-5,-3,-5,-2,-1,-2,-3,2468
0.473957,-0.469258,-3.08449,-2.4375,33.375,-61.8125,0.314453,0.741211,1.24707,-4,-5,-1,3,4,1,2,-4,2485
0.472422,-0.362035,3.12599,-49.8125,56.125,-91.9375,0.352539,0.549316,0.890137,10,-18,-6,-10,-5,-3,0,0,2549
0.460709,-0.328564,3.10428,-62.25,58.125,-92.0625,0.32959,0.581055,0.925293,-9,12,9,6,1,4,-1,-2,2566
0.447131,-0.297723,3.08279,-70.125,57.5,-88.5625,0.401855,0.692383,1.01709,-12,19,4,-3,4,6,2,-3,2584
0.433367,-0.271725,3.06392,-76.4375,55.125,-76.625,0.473145,0.826172,1.02686,-4,14,11,11,6,5,0,-3,2600
0.417604,-0.252954,3.04927,-74.4375,50.5625,-61.75,0.549805,0.709961,0.932129,12,-2,-9,-4,-3,-5,-1,1,2617
0.417604,-0.252954,3.04927,-74.4375,50.5625,-61.75,0.549805,0.709961,0.932129,10,-3,3,-7,-3,-5,-1,2,2636
0.401682,-0.236261,3.03773,-63.3125,55.0625,-56.375,0.59668,0.501953,0.818848,-8,-2,2,-6,-6,-6,-2,1,2654
0.39449,-0.215782,3.02435,-41.5,52.625,-59.9375,0.343262,0.443848,0.597656,-7,-5,-9,-13,-7,-8,-2,6,2672
0.390702,-0.190253,3.01158,-29.375,60.375,-61,0.202637,0.379883,0.491699,-2,-8,-5,-2,0,2,0,1,2689
0.388333,-0.165199,3.00055,-27,58.5,-55,0.118164,0.355469,0.306152,-3,-4,3,-1,5,7,0,-4,2706
0.388333,-0.165199,3.00055,-27,58.5,-55,0.118164,0.355469,0.306152,-11,0,3,3,3,6,1,-6,2723
0.368291,-0.12127,2.98518,-33.875,58.375,-45.25,-0.114258,0.152344,0.376465,4,2,5,3,2,2,-2,-10,2740
0.368291,-0.12127,2.98518,-33.875,58.375,-45.25,-0.114258,0.152344,0.376465,10,2,-2,-1,0,0,-2,2,2757
0.368291,-0.12127,2.98518,-33.875,58.375,-45.25,-0.114258,0.152344,0.376465,13,-2,-1,-2,-5,-3,1,2,2774
0.352245,-0.0980263,2.9722,-29.1875,44.5625,-35.5,0.390137,0.394043,0.190918,5,1,-6,-7,-3,0,-2,1,2792
0.348033,-0.074777,2.9663,-28.9375,47.125,-33.75,-0.138672,0.29541,0.160156,-3,0,5,7,-1,-2,-3,-3,2809
0.315974,-0.00490223,2.96407,-43.875,22.5625,-0.5625,-0.414063,0.387207,0.564941,12,0,4,-1,-7,-7,-3,3,2878
0.31638,-0.0312438,2.98094,-14,-19,38.0625,0.735352,0.64209,0.771973,-8,-6,-5,-7,-4,-3,-1,1,2896
0.31638,-0.0312438,2.98094,-14,-19,38.0625,0.735352,0.64209,0.771973,-3,2,0,-1,0,-5,-9,0,2913
0.318821,-0.0667562,2.99321,-0.5625,-33.75,48.1875,0.853027,0.506836,1.12061,3,-7,-16,-9,-6,-5,-2,1,2930
0.318821,-0.0667562,2.99321,-0.5625,-33.75,48.1875,0.853027,0.506836,1.12061,-8,-8,-4,0,-1,0,-1,0,2947
0.339527,-0.128103,3.01595,32.8125,-53.125,53.5625,0.48291,0.546387,1.13135,-1,4,-13,-4,3,3,-1,-3,2965
0.352812,-0.164099,3.02831,29,-65.5625,63.125,0.500977,0.635254,1.14209,5,1,-3,-1,0,0,1,0,2983
0.361148,-0.202789,3.04273,28.4375,-73,71.25,0.48584,0.438477,1.04932,2,-8,-14,-10,-6,-2,-2,-8,3000
0.371038,-0.240168,3.05706,46.375,-70.9375,67.875,0.473633,0.212402,0.918945,-15,-4,2,6,3,6,-2,-4,3017
0.371038,-0.240168,3.05706,46.375,-70.9375,67.875,0.473633,0.212402,0.918945,1,-8,-12,-5,0,-4,-2,1,3035
0.386532,-0.272493,3.06801,60.5,-63.8125,55.5625,0.436035,0.224609,0.867188,-11,-10,-25,-23,-14,-17,-3,5,3052
0.399845,-0.301036,3.07663,46.9375,-57.5625,48.8125,0.450195,0.354004,0.915039,-5,-7,-25,-20,-11,-14,-6,9,3069
0.399845,-0.301036,3.07663,46.9375,-57.5625,48.8125,0.450195,0.354004,0.915039,18,5,11,6,-1,6,-6,-3,3086
0.413415,-0.359154,3.09516,29.625,-68.5625,58.75,0.374023,0.373047,1.01855,34,17,29,30,23,34,3,-11,3103
0.423808,-0.392481,3.10575,45.125,-78.125,63.4375,0.41748,0.381836,1.00732,37,42,42,38,20,26,3,-21,3120
0.440161,-0.425933,3.11526,61.125,-81.4375,63.4375,0.380371,0.375977,0.915527,4,38,40,31,17,16,5,-21,3137
0.477651,-0.485624,3.13113,65.25,-70.625,55.0625,0.275879,0.291016,0.714355,17,-68,-32,-23,-17,-21,-2,16,3192
0.490221,-0.508364,3.13971,53.5,-60.625,52.25,0.18457,0.250488,0.677246,13,19,-9,-11,-5,-5,-3,9,3209
0.498326,-0.526882,-3.13415,44.125,-53.5,50.1875,0.0947266,0.210938,0.64502,-9,18,3,-1,2,2,-4,-1,3227
0.504955,-0.542812,-3.12498,41.375,-50.3125,47.125,0.0410156,0.185059,0.642578,-5,28,15,13,4,8,-2,-5,3244
0.512043,-0.557832,-3.11692,40.75,-48.875,44.1875,0.0332031,0.186035,0.623535,6,-1,2,3,1,3,0,-6,3261
0.512043,-0.557832,-3.11692,40.75,-48.875,44.1875,0.0332031,0.186035,0.623535,1,-3,-15,-14,-2,-3,1,1,3277
0.517778,-0.570223,-3.1094,36.5,-43.9375,39.125,0.0439453,0.200684,0.642578,2,-6,-4,7,-1,-5,1,2,3294
0.524816,-0.579717,-3.10353,37.5,-39.9375,33.0625,0.0507813,0.229004,0.677246,1,-9,5,3,-1,0,1,1,3312
0.532787,-0.586752,-3.09862,40.0625,-35.75,27.1875,0.0703125,0.231934,0.713379,3,-10,1,-1,-1,2,-3,-2,3329
0.540101,-0.589903,-3.09581,36.75,-28.75,16.0625,0.0849609,0.217773,0.741211,-9,1,2,3,-1,-1,-4,-3,3346
0.546448,-0.587006,-3.09677,27.5625,-21.4375,1.5625,0.0693359,0.258301,0.790527,-5,6,-7,-4,-6,-4,-3,-3,3363
0.548995,-0.578241,-3.10149,11,-12.6875,-13.875,0.0957031,0.302734,0.85791,-5,19,8,0,1,1,-1,-3,3380
0.546968,-0.563999,-3.10953,-7.75,-3.75,-28.3125,0.12207,0.353516,0.923828,-2,3,-12,-3,0,0,0,-2,3398
0.546968,-0.563999,-3.10953,-7.75,-3.75,-28.3125,0.12207,0.353516,0.923828,-4,-1,9,-9,2,1,-1,-3,3415
0.544554,-0.547395,-3.12037,-13.8125,-0.125,-37.9375,0.174316,0.404297,0.977539,-4,-1,9,-9,2,1,-1,-3,3433
0.543269,-0.530072,-3.1335,-16.5,4.9375,-45.3125,0.300293,0.485352,1.02197,6,-12,-3,6,0,0,-1,-1,3450
0.548682,-0.486992,3.11417,-12.5625,15.8125,-71.75,0.401367,0.632324,1.16846,-7,5,-15,-11,-2,-3,-2,1,3494
0.548682,-0.486992,3.11417,-12.5625,15.8125,-71.75,0.401367,0.632324,1.16846,-13,-8,10,-6,-1,0,0,-2,3511
0.55651,-0.436361,3.06574,-24.4375,15.75,-82.625,0.448242,0.744141,1.13818,-11,-1,5,-19,3,3,2,-4,3529
0.556727,-0.41333,3.04045,-33.625,19.6875,-87.8125,0.498535,0.711426,1.01758,-5,0,-14,-5,2,3,0,-4,3546
0.556727,-0.41333,3.04045,-33.625,19.6875,-87.8125,0.498535,0.711426,1.01758,4,-6,-6,1,-4,-4,-2,-2,3563
0.543101,-0.362776,2.98478,-66.25,25.625,-99.5,0.407715,0.703125,0.898926,3,-10,-5,4,-1,1,1,0,3581
0.543101,-0.362776,2.98478,-66.25,25.625,-99.5,0.407715,0.703125,0.898926,9,11,36,16,10,9,-2,-6,3598
0.530519,-0.337504,2.95617,-76.25,23.5625,-98.625,0.375977,0.73291,0.893555,-16,13,1,6,-1,0,2,-6,3616
0.530519,-0.337504,2.95617,-76.25,23.5625,-98.625,0.375977,0.73291,0.893555,12,2,-11,-6,-9,-10,-1,4,3633
0.498456,-0.292643,2.90155,-87.125,21.8125,-89.5,0.36377,0.753906,0.874023,-7,-11,-16,-13,-7,-9,-1,2,3650
0.481484,-0.274416,2.87738,-87.6875,23.3125,-81.25,0.397461,0.758789,0.823242,-4,-15,-9,-4,-1,-2,-6,1,3668
0.481484,-0.274416,2.87738,-87.6875,23.3125,-81.25,0.397461,0.758789,0.823242,-2,0,-3,-5,-2,-1,1,1,3685
0.481484,-0.274416,2.87738,-87.6875,23.3125,-81.25,0.397461,0.758789,0.823242,-2,-3,-2,1,-1,-1,-2,3,3703
0.446131,-0.243899,2.83633,-77.875,30.5,-71.0625,0.397949,0.500488,0.572266,-2,-6,-3,-7,-1,-1,2,0,3720
0.430875,-0.226354,2.8177,-67.75,36.75,-71.625,0.32959,0.403809,0.468262,-2,-6,-3,-7,-1,-1,2,0,3737
0.430875,-0.226354,2.8177,-67.75,36.75,-71.625,0.32959,0.403809,0.468262,2,-2,7,6,0,1,-3,-3,3754
0.37202,-0.12978,2.74808,-42,39.0625,-44.5,0.144043,0.324707,0.419434,9,-2,1,0,0,1,-1,-3,3829
0.37202,-0.12978,2.74808,-42,39.0625,-44.5,0.144043,0.324707,0.419434,4,1,5,-3,-3,-1,-2,1,3846
0.365184,-0.117528,2.73966,-35.375,31.875,-36.5625,0.181641,0.380371,0.481445,-8,-5,-12,-7,-2,-7,-4,-2,3863
0.349342,-0.108296,2.7306,-43.625,16.1875,-13.75,0.284668,0.472168,0.611816,-4,-9,-7,-4,-1,0,-5,0,3881
0.349342,-0.108296,2.7306,-43.625,16.1875,-13.75,0.284668,0.472168,0.611816,2,-2,-5,-1,-2,-3,-9,-2,3897
0.339088,-0.111045,2.73025,-41.1875,6.25,-2.0625,0.297363,0.419922,0.702148,-2,-1,-5,-6,-4,-2,0,2,3914
0.339088,-0.111045,2.73025,-41.1875,6.25,-2.0625,0.297363,0.419922,0.702148,-14,6,-3,-3,-4,-1,-2,-4,3931
0.332263,-0.134659,2.73623,-16.125,-15.5,20.0625,0.459961,0.520508,0.882813,3,-1,-2,2,0,-2,0,-4,3949
0.333172,-0.153755,2.74265,-5.0625,-22.125,28.375,0.509766,0.475098,0.92627,-2,-3,-3,-3,-1,-1,2,1,3966
0.333172,-0.153755,2.74265,-5.0625,-22.125,28.375,0.509766,0.475098,0.92627,5,-7,-1,3,-1,-2,0,-2,3982
0.34884,-0.202217,2.7596,21.125,-44.9375,45.875,0.503906,0.5625,1.04004,-4,-9,-8,-7,-3,-3,0,0,3999
0.34884,-0.202217,2.7596,21.125,-44.9375,45.875,0.503906,0.5625,1.04004,3,2,-3,-3,-3,-1,1,1,4016
0.359425,-0.234592,2.771,29.625,-59.8125,57.6875,0.52002,0.514648,1.05664,7,-6,-10,-8,-6,-8,-3,3,4033
0.359425,-0.234592,2.771,29.625,-59.8125,57.6875,0.52002,0.514648,1.05664,7,-3,-12,-8,-6,-9,-2,7,4049
0.389176,-0.308343,2.79515,61.125,-72.5,61.6875,0.536133,0.279297,0.850586,-2,-9,-17,-15,-6,-7,-3,5,4066
0.404539,-0.341463,2.80395,56.375,-68.0625,52.5625,0.492676,0.288086,0.844727,2,-4,0,-2,-1,0,-2,2,4083
0.418666,-0.440901,2.82888,29.3125,-84.9375,57.875,0.479492,0.224121,0.916992,-41,-18,-24,-17,-14,-20,1,4,4154
0.418666,-0.440901,2.82888,29.3125,-84.9375,57.875,0.479492,0.224121,0.916992,10,-13,-34,-33,-19,-21,-5,19,4171
0.444399,-0.510234,2.83996,54.125,-88.0625,52.25,0.427246,0.331543,0.848145,7,-25,-32,-28,-13,-14,-5,13,4189
0.460235,-0.542664,2.84379,56.3125,-87.875,49.25,0.362305,0.274902,0.76416,13,-2,-10,-13,-7,-9,-3,8,4205
0.460235,-0.542664,2.84379,56.3125,-87.875,49.25,0.362305,0.274902,0.76416,2,3,-1,0,-1,2,-2,-4,4222
0.487084,-0.598261,2.84827,45.1875,-78.8125,40.625,0.217773,0.216309,0.651367,0,6,13,9,3,3,-1,-6,4239
0.487084,-0.598261,2.84827,45.1875,-78.8125,40.625,0.217773,0.216309,0.651367,-1,1,8,11,4,6,-3,-8,4257
0.496048,-0.622743,2.8508,35.625,-74.25,41.625,0.202637,0.216309,0.618652,-5,-1,0,0,-1,3,12,-2,4274
0.496048,-0.622743,2.8508,35.625,-74.25,41.625,0.202637,0.216309,0.618652,10,-1,-5,-5,-2,-1,10,4,4291
0.506752,-0.663795,2.85399,24.6875,-60.3125,29.4375,0.225586,0.174805,0.608887,3,4,-3,0,3,-1,-4,4,4308
0.514853,-0.677449,2.85468,32.875,-51.125,22.625,0.213867,0.178711,0.638184,-51,-7,2,-7,-6,-4,1,-4,4325
0.514853,-0.677449,2.85468,32.875,-51.125,22.625,0.213867,0.178711,0.638184,5,-2,2,-6,-3,-3,-1,1,4342
0.514853,-0.677449,2.85468,32.875,-51.125,22.625,0.213867,0.178711,0.638184,2,0,-2,0,-3,-3,1,1,4359
0.537118,-0.694751,2.85315,37.125,-36.625,12.6875,0.215332,0.211914,0.631836,7,-3,-11,-10,-4,-2,2,2,4376
0.545339,-0.698538,2.85265,30.8125,-26.875,6.6875,0.250977,0.206543,0.635742,-6,12,23,4,1,3,-1,-4,4393
0.545339,-0.698538,2.85265,30.8125,-26.875,6.6875,0.250977,0.206543,0.635742,7,4,-15,-10,-1,0,2,-1,4409
0.561351,-0.653496,2.83493,1.25,11.0625,-23.875,0.51123,0.490723,0.961426,-13,-4,6,-3,-3,-2,-2,-3,4480
0.561351,-0.653496,2.83493,1.25,11.0625,-23.875,0.51123,0.490723,0.961426,4,-8,-5,-7,-5,-3,-1,1,4497
0.561944,-0.639161,2.83097,-1.0625,14,-23.5,0.625488,0.592773,1.08154,1,28,18,13,1,-3,-1,2,4514
0.561944,-0.639161,2.83097,-1.0625,14,-23.5,0.625488,0.592773,1.08154,-5,-6,-6,-3,-4,0,-2,-1,4531
0.560552,-0.61348,2.82133,-5.5,18,-30.75,0.760742,0.552734,1.07227,-1,8,16,5,5,4,1,-1,4548
0.560552,-0.61348,2.82133,-5.5,18,-30.75,0.760742,0.552734,1.07227,-6,-8,34,-11,-1,-2,-3,-6,4566
0.560372,-0.596682,2.81455,-7.8125,31,-42.0625,0.734375,0.508789,0.938477,-7,-8,-14,-1,1,0,-1,-2,4584
0.560372,-0.596682,2.81455,-7.8125,31,-42.0625,0.734375,0.508789,0.938477,-2,-11,11,-4,-2,-2,-1,-3,4601
0.546015,-0.546914,2.7963,-50.5625,56.1875,-57.5,0.606445,0.577148,0.821289,1,-9,-4,9,3,3,0,-2,4617
0.546015,-0.546914,2.7963,-50.5625,56.1875,-57.5,0.606445,0.577148,0.821289,-1,1,-5,-8,-6,0,-2,-5,4634
0.546015,-0.546914,2.7963,-50.5625,56.1875,-57.5,0.606445,0.577148,0.821289,-5,1,-5,-2,0,2,0,-2,4651
0.491416,-0.476036,2.78514,-53.125,47.125,-29.3125,0.488281,0.53125,0.873535,4,10,-13,-2,0,-4,-1,-1,4667
0.491416,-0.476036,2.78514,-53.125,47.125,-29.3125,0.488281,0.53125,0.873535,4,10,-13,-2,0,-4,-1,-1,4684
0.491416,-0.476036,2.78514,-53.125,47.125,-29.3125,0.488281,0.53125,0.873535,0,1,-9,-10,-5,-6,-3,1,4701
0.479366,-0.459737,2.78136,-45.3125,38.125,-27.75,0.479004,0.531738,0.824707,-1,-8,-16,-9,-3,-3,0,0,4717
0.479366,-0.459737,2.78136,-45.3125,38.125,-27.75,0.479004,0.531738,0.824707,0,-1,8,6,-2,-1,-1,0,4734
0.422244,-0.355738,2.73442,-51.375,53.75,-49.75,0.270508,0.291016,0.408203,67,5,3,-1,1,-1,1,2,4820
0.422244,-0.355738,2.73442,-51.375,53.75,-49.75,0.270508,0.291016,0.408203,12,3,10,5,0,-1,2,-1,4837
0.422244,-0.355738,2.73442,-51.375,53.75,-49.75,0.270508,0.291016,0.408203,-12,0,-3,-2,-2,-2,-1,0,4855
0.401713,-0.303505,2.71038,-28.5,37.4375,-32.0625,0.307617,0.32373,0.432617,-24,0,-5,5,-3,-4,7,0,4872
0.401713,-0.303505,2.71038,-28.5,37.4375,-32.0625,0.307617,0.32373,0.432617,10,2,-6,-6,0,-1,2,9,4889
0.401713,-0.303505,2.71038,-28.5,37.4375,-32.0625,0.307617,0.32373,0.432617,-33,-8,6,3,10,5,8,-5,4906
0.401713,-0.303505,2.71038,-28.5,37.4375,-32.0625,0.307617,0.32373,0.432617,40,6,11,-4,-1,3,4,4,4923
0.377881,-0.285051,2.70189,-40.625,15.5,-0.375,0.381348,0.415527,0.636719,19,20,-2,-1,-1,-17,6,1,4940
0.377881,-0.285051,2.70189,-40.625,15.5,-0.375,0.381348,0.415527,0.636719,11,-4,-22,-47,-8,-1,-7,-3,4957
0.357176,-0.297689,2.71244,-29.3125,3.5625,16.6875,0.537109,0.352051,0.704102,-15,3,14,23,0,3,-8,-1,4974
0.356963,-0.311138,2.72187,-0.9375,-2.0625,31.125,0.672363,0.428223,0.797363,12,1,-9,-18,-3,3,6,6,4992
0.356963,-0.311138,2.72187,-0.9375,-2.0625,31.125,0.672363,0.428223,0.797363,13,5,23,56,-13,-25,-11,-3,5009
0.366867,-0.345408,2.74324,18.6875,-24.6875,46.5625,0.608398,0.456055,0.966797,-50,3,12,5,2,14,-27,-22,5026
0.371753,-0.371929,2.75944,26.8125,-40.6875,63.6875,0.653809,0.441895,1,-35,-18,-18,-37,-8,-10,-30,-14,5043
0.371753,-0.371929,2.75944,26.8125,-40.6875,63.6875,0.653809,0.441895,1,48,8,1,-21,6,4,4,12,5060
0.390443,-0.406641,2.77289,64.5625,-60.9375,64.4375,0.768555,0.467773,1,-3,-17,-11,-22,4,-3,-10,-15,5078
0.434698,-0.500182,2.81291,59.875,-52.5625,60.5625,0.76709,0.453125,0.857422,9,10,21,39,6,-8,41,4,5143
0.434698,-0.500182,2.81291,59.875,-52.5625,60.5625,0.76709,0.453125,0.857422,-34,-15,-24,-53,-16,-8,-27,-29,5160
0.434698,-0.500182,2.81291,59.875,-52.5625,60.5625,0.76709,0.453125,0.857422,43,-11,-33,-23,-5,-19,-16,32,5177
0.439931,-0.57884,2.86051,38.625,-50,70.3125,0.704102,0.398926,0.916504,18,-9,-19,-1,-27,-9,-11,17,5194
0.439931,-0.57884,2.86051,38.625,-50,70.3125,0.704102,0.398926,0.916504,86,11,-2,-14,-3,5,18,17,5212
0.466262,-0.639028,2.89561,73.125,-64.125,76,0.562012,0.37793,0.748535,50,7,10,-19,2,4,4,2,5228
0.478022,-0.667944,2.91401,65.9375,-61.0625,77.5625,0.480469,0.351074,0.685547,-17,-6,1,-23,11,8,-9,-12,5246
0.478022,-0.667944,2.91401,65.9375,-61.0625,77.5625,0.480469,0.351074,0.685547,82,-1,-16,-45,20,-1,-5,8,5264
0.478022,-0.667944,2.91401,65.9375,-61.0625,77.5625,0.480469,0.351074,0.685547,-47,7,-1,-3,2,3,-14,-13,5281
0.48878,-0.714788,2.94606,45.375,-54.125,60.8125,0.325684,0.244629,0.65332,-1,15,2,-28,-8,6,17,-7,5297
0.495618,-0.732446,2.95902,48.5,-50.0625,54.5,0.282715,0.27832,0.666504,4,-1,-4,11,7,1,2,0,5314
0.495618,-0.732446,2.95902,48.5,-50.0625,54.5,0.282715,0.27832,0.666504,23,3,3,-1,3,0,-1,4,5331
0.511092,-0.758367,2.97579,39.9375,-44.875,37.375,0.138184,0.246582,0.604492,-12,1,-12,-25,-3,-3,-2,-4,5348
0.511092,-0.758367,2.97579,39.9375,-44.875,37.375,0.138184,0.246582,0.604492,29,3,-14,-23,-5,-3,2,-5,5365
0.511092,-0.758367,2.97579,39.9375,-44.875,37.375,0.138184,0.246582,0.604492,-84,-18,-10,8,-1,-5,-31,-15,5382
0.514311,-0.768421,2.98195,30.5625,-37,24.75,0.154297,0.0761719,0.51709,-1,15,1,-32,-2,0,-2,-2,5399
0.522677,-0.698782,2.98181,-3.1875,45.375,-41.625,0.00390625,0.197266,0.723145,5,9,7,7,4,4,15,4,5475
0.531953,-0.664109,2.9771,21.375,52.3125,-46,0.0639648,0.351074,0.725586,19,-8,-6,6,-1,1,12,5,5493
0.531953,-0.664109,2.9771,21.375,52.3125,-46,0.0639648,0.351074,0.725586,-2,1,-1,-9,-2,2,-9,-6,5510
0.534261,-0.588036,2.98133,7.625,76.3125,-39.8125,0.108887,0.299805,0.793457,39,0,21,41,-2,-4,24,16,5528
0.534261,-0.588036,2.98133,7.625,76.3125,-39.8125,0.108887,0.299805,0.793457,18,-7,-27,-40,12,0,-8,9,5545
0.538606,-0.547538,2.98079,21.5,67,-48.3125,0.0244141,0.350586,0.907227,7,-18,-17,-31,-15,-3,-4,-2,5562
0.538606,-0.547538,2.98079,21.5,67,-48.3125,0.0244141,0.350586,0.907227,-42,-3,-14,9,21,1,8,-10,5579
0.548227,-0.473792,2.9631,-7.25,57.75,-69.625,0.265137,0.557617,1.05664,-95,11,28,39,1,-2,-32,-19,5596
0.54352,-0.434775,2.94951,-23.9375,60.3125,-81.375,0.305664,0.558105,1.12744,3,13,53,-12,-7,2,8,-8,5613
0.54352,-0.434775,2.94951,-23.9375,60.3125,-81.375,0.305664,0.558105,1.12744,-49,-10,9,5,-23,-1,23,-11,5631
0.545081,-0.359622,2.90466,-19.6875,48.8125,-104.438,0.48584,0.966797,1.36768,-16,7,11,-4,-5,3,15,4,5647
0.536439,-0.319718,2.8781,-54,62.625,-119.563,0.696289,1.21436,1.5752,-50,15,42,37,2,-2,17,8,5664
0.536439,-0.319718,2.8781,-54,62.625,-119.563,0.696289,1.21436,1.5752,12,14,-17,-16,10,0,-12,0,5680
0.536439,-0.319718,2.8781,-54,62.625,-119.563,0.696289,1.21436,1.5752,0,14,-13,-26,-9,-4,8,4,5697
0.502267,-0.253931,2.8364,-82.8125,73.1875,-92.8125,0.942871,1.15039,1.40137,-4,-9,-31,-26,-13,-6,-2,4,5715
0.487929,-0.225664,2.8192,-72,81.9375,-93.4375,0.842285,0.940918,1.17285,-8,-14,-21,-35,-17,-17,1,12,5732
0.458172,-0.111338,2.77673,-36,78.25,-55.3125,0.453613,0.487793,0.509766,-4,9,14,54,15,0,11,-10,5810
0.452404,-0.0754063,2.76932,-13.75,58.5625,-35.9375,0.353027,0.259766,0.162109,17,12,21,84,9,-1,-29,-5,5827
0.452404,-0.0754063,2.76932,-13.75,58.5625,-35.9375,0.353027,0.259766,0.162109,-2,1,8,12,-11,-5,39,-10,5843
0.453249,-0.0635448,2.76952,-10.375,52.75,-24.375,0.359375,0.203125,-0.00390625,-11,4,-3,-2,8,5,19,-6,5860
0.449396,-0.0542041,2.77314,-21.1875,52.125,-13.0625,0.371094,0.108887,-0.131836,19,8,5,-17,7,7,26,5,5876
0.449396,-0.0542041,2.77314,-21.1875,52.125,-13.0625,0.371094,0.108887,-0.131836,-10,-1,-11,-31,-2,-6,-2,-5,5893
0.445115,-0.0457794,2.77879,-19.5,48.8125,-5.0625,0.317871,0.0410156,-0.191895,-19,-11,-16,12,21,-11,-26,-10,5909
0.441583,-0.0416757,2.79712,-12,27.4375,20.375,0.273926,0.0727539,-0.166504,-5,-4,-9,5,-6,-12,-7,11,5925
0.441583,-0.0416757,2.79712,-12,27.4375,20.375,0.273926,0.0727539,-0.166504,-17,-4,-8,-11,-1,-6,7,-1,5942
0.440148,-0.0536855,2.81308,-9.5,12.625,45.0625,0.382813,0.0615234,-0.111816,13,-9,-4,2,-1,0,2,6,5959
0.440387,-0.0792942,2.83343,-4.375,-5.8125,67.5625,0.586426,0.17041,0.0693359,10,-18,3,13,1,4,18,5,5977
0.441524,-0.110068,2.85669,-9.9375,-13.625,81.6875,0.65332,0.486816,0.388672,-14,8,-5,-11,9,5,6,-15,5994
0.441524,-0.110068,2.85669,-9.9375,-13.625,81.6875,0.65332,0.486816,0.388672,-9,-24,-12,-9,-7,-3,3,1,6011
0.441524,-0.110068,2.85669,-9.9375,-13.625,81.6875,0.65332,0.486816,0.388672,-11,-8,6,62,17,-14,-9,2,6027
0.459049,-0.197864,2.91161,54.6875,-101.875,144,0.541016,0.906738,1.33691,6,-11,-20,-47,2,-12,-32,-7,6044
0.486817,-0.264998,2.94588,101,-123.375,170.625,0.786621,0.88623,1.55811,4,0,-15,5,-15,-14,38,33,6061
0.55069,-0.454255,3.0289,62.1875,-101.25,143.688,0.865234,1.01172,1.69971,-33,6,-36,-46,-21,-22,-2,17,6127
0.555645,-0.501844,3.05149,43.3125,-91.3125,124.25,0.638184,1.05664,1.6416,-15,12,-41,38,-37,-58,-29,27,6143
0.555645,-0.501844,3.05149,43.3125,-91.3125,124.25,0.638184,1.05664,1.6416,28,-18,-55,-47,-18,-14,1,24,6160
0.559607,-0.547222,3.07669,47.5,-84.8125,126.5,0.529785,0.989746,1.54688,43,-20,-4,-9,5,18,12,-3,6178
0.570229,-0.625152,3.13505,67.75,-60.3125,123.125,0.17334,0.710938,1.14111,-43,8,18,27,11,18,-4,-23,6194
0.570229,-0.625152,3.13505,67.75,-60.3125,123.125,0.17334,0.710938,1.14111,-22,28,8,-2,1,5,12,-7,6212
0.573591,-0.658885,-3.11404,68.5,-48.0625,123.625,0.0830078,0.580566,0.929688,-15,-4,-6,-17,-5,-5,26,-7,6228
0.569706,-0.688728,-3.0769,56.125,-35.0625,120.313,-0.00976563,0.398438,0.75,-15,-22,-3,-23,-7,-7,31,18,6246
0.55716,-0.713806,-3.03787,38.4375,-23,113.75,-0.133789,0.182129,0.578613,7,-8,-8,-23,-7,-4,3,-1,6263
0.545591,-0.734495,-2.99857,43.5,-15.0625,105.875,-0.305176,0.0898438,0.447266,-1,-8,-3,4,-2,-2,-15,0,6280
0.52963,-0.744093,-2.96167,33.3125,-12.0625,90.1875,-0.349121,0.00244141,0.285645,2,20,-3,4,1,0,-7,-5,6297
0.52963,-0.744093,-2.96167,33.3125,-12.0625,90.1875,-0.349121,0.00244141,0.285645,3,-6,-4,-13,0,2,-1,-1,6313
0.510412,-0.748115,-2.93154,13.75,-6.4375,65.3125,-0.400879,-0.105469,0.222656,-4,-10,-6,-11,-6,0,-23,0,6330
0.482165,-0.747367,-2.90901,-22.25,-3.125,39.8125,-0.479004,-0.256836,0.142578,-25,-22,-2,-15,-2,1,19,-2,6348
0.465399,-0.739184,-2.90046,-18.8125,-3.5625,9.375,-0.634277,-0.230957,0.0913086,6,-15,0,20,-4,-13,-23,0,6366
0.456505,-0.728065,-2.90294,-23.75,-4.5,-10.5625,-0.612793,-0.118164,0.0625,14,56,-1,10,-1,-15,-10,-9,6382
0.430497,-0.649443,-2.94485,-54.125,27,-66.875,-0.355957,0.275879,0.638184,9,-33,-36,-39,-37,-15,2,56,6444
0.443294,-0.618828,-2.98225,-31.0625,26.875,-104.563,-0.212891,0.948242,1.35693,-8,26,43,58,9,13,-35,2,6461
0.435348,-0.588564,-3.02349,-89.625,37.0625,-124.875,0.151367,1.42334,1.85156,6,25,25,-32,-22,-49,-24,65,6479
0.42523,-0.558137,-3.06631,-95.6875,36.4375,-130.125,0.751953,1.47949,1.99707,37,-21,-63,-4,39,48,3,101,6496
0.42523,-0.558137,-3.06631,-95.6875,36.4375,-130.125,0.751953,1.47949,1.99707,-99,-17,36,41,-10,-23,74,-1,6514
0.415949,-0.52092,-3.10634,-85.4375,56.9375,-133.625,1.35156,1.2749,2.0752,45,75,73,15,-112,-26,8,-34,6530
0.417948,-0.466401,3.1213,-69.8125,86,-191.375,1.13525,1.2207,1.89648,22,37,-60,-106,-12,-53,0,29,6547
0.415385,-0.406343,3.06883,-75.75,104.625,-193,0.980469,1.10889,1.74023,-24,-15,-45,-44,-2,-25,-19,34,6564
0.400996,-0.345814,3.01367,-105.75,105.125,-202.938,0.882324,1.10059,1.59668,-4,2,-40,-32,4,17,42,-14,6581
0.400996,-0.345814,3.01367,-105.75,105.125,-202.938,0.882324,1.10059,1.59668,19,-31,-6,0,-8,-8,-2,6,6598
0.385061,-0.287335,2.9608,-99.5,104.188,-197.125,0.715332,0.980469,1.31738,-35,-28,2,22,-18,2,-23,-65,6614
0.372105,-0.237234,2.91092,-80,88.4375,-182.125,0.647949,0.797852,1.07666,-6,2,14,14,-53,1,-26,-16,6631
0.359457,-0.193849,2.86493,-69.5625,78.875,-166.938,0.704102,0.599609,0.719727,34,29,-5,-28,32,16,-50,-30,6649
0.350893,-0.154697,2.8238,-50.25,73.8125,-150.25,0.625,0.532227,0.492188,-3,14,12,11,47,7,15,-1,6667
0.34826,-0.123692,2.78879,-27.9375,57.5625,-125.875,0.548828,0.48877,0.241211,23,12,8,22,-32,-17,30,22,6684
0.345283,-0.101279,2.76017,-23.1875,41.0625,-100.563,0.513184,0.361816,0.0288086,-84,-27,-19,5,51,10,6,-12,6701
0.333202,-0.0882855,2.7249,-31.625,38.25,-20.3125,0.570801,-0.0581055,-0.371094,-11,-47,30,95,-46,-16,53,-7,6767
0.333202,-0.0882855,2.7249,-31.625,38.25,-20.3125,0.570801,-0.0581055,-0.371094,60,30,26,98,75,25,12,59,6784
0.328691,-0.0913128,2.7262,-15.1875,30.625,-6.3125,0.546387,-0.0961914,-0.399902,-6,17,21,-32,-22,6,46,-60,6801
0.334547,-0.100892,2.73251,7.375,21.6875,12.8125,0.610352,0.0415039,-0.384277,-5,25,-4,-46,-19,9,48,1,6818
0.336802,-0.113315,2.74565,-3.25,23.75,32.8125,0.664551,0.0878906,-0.337402,1,-5,3,-4,-17,9,30,-3,6836
0.340277,-0.126259,2.76652,5.75,20.625,57.1875,0.532227,0.103516,-0.192383,12,-2,6,70,3,-11,-61,7,6853
0.349803,-0.149261,2.79279,18.0625,-5.0625,83.6875,0.532715,0.371094,0.214844,-66,44,28,-45,-18,-3,-88,4,6869
0.364049,-0.184485,2.82886,49.5,-51.5,129.563,0.644531,0.850098,0.847168,-21,33,31,-12,-1,-24,55,67,6887
0.397667,-0.239698,2.87312,116.125,-93.8125,172.75,0.867676,1.06006,1.4873,60,-31,-36,-99,-19,-1,97,53,6904
0.444479,-0.30505,2.91865,162.75,-114.25,190.75,0.978027,1.25586,1.76465,-85,-8,15,47,-27,7,-8,0,6922
0.485086,-0.370066,2.96649,161.813,-108.438,199.438,1.11377,1.39111,1.94238,-23,13,1,3,-8,2,-34,-6,6937
0.485086,-0.370066,2.96649,161.813,-108.438,199.438,1.11377,1.39111,1.94238,29,13,35,68,23,53,-3,-32,6954
0.506779,-0.431088,3.00659,106.75,-103.563,176.25,0.95752,1.29736,1.99902,-83,54,96,-11,39,66,24,-68,6971
0.521746,-0.483955,3.03665,82.9375,-100.063,143.938,0.763672,1.01074,2.01855,-117,-46,-20,-49,-18,-32,24,-6,6988
0.537428,-0.532454,3.06215,82.0625,-94.5,128.563,0.730957,0.986328,1.83887,39,-95,-128,-120,-50,-84,54,83,7006
0.549081,-0.577638,3.08806,71.625,-87.375,127.188,0.506348,1.07227,1.59863,48,-12,-65,-23,-7,-31,-26,18,7023
0.519939,-0.743867,-3.05955,41.3125,-67.75,129.188,-0.0727539,0.333984,0.741211,24,-74,-30,-43,-31,-32,-11,14,7102
0.509381,-0.777788,-3.0209,47.8125,-53.5625,120.875,-0.128906,0.205078,0.611328,30,-52,-18,-10,-1,-13,-11,12,7119
0.509381,-0.777788,-3.0209,47.8125,-53.5625,120.875,-0.128906,0.205078,0.611328,-5,0,4,14,-37,1,-12,-3,7136
0.494419,-0.794053,-2.98616,30.6875,-38.5,97.75,-0.212402,0.181152,0.44873,15,-10,-2,31,7,-12,-94,-3,7153
0.475107,-0.801142,-2.95679,12.125,-21.875,69.1875,-0.356445,0.00390625,0.327637,15,-10,-2,31,7,-12,-94,-3,7170
0.475107,-0.801142,-2.95679,12.125,-21.875,69.1875,-0.356445,0.00390625,0.327637,-15,47,-10,-40,5,4,39,9,7187
0.456415,-0.798674,-2.93619,-3.125,-6.5625,39.875,-0.46875,-0.0703125,0.229004,14,-41,-22,-17,-3,18,-10,-7,7205
0.438094,-0.786498,-2.92375,-18.5625,8.4375,14.25,-0.598145,-0.119629,0.165527,-28,-14,-5,-17,-17,-74,21,-16,7223
0.438094,-0.786498,-2.92375,-18.5625,8.4375,14.25,-0.598145,-0.119629,0.165527,2,44,22,-1,30,75,28,46,7240
0.410232,-0.739717,-2.92497,-35.4375,28,-31.125,-0.745117,-0.117188,0.09375,-18,-27,-3,11,10,45,20,-4,7257
0.403271,-0.706228,-2.93565,-35.125,34.4375,-45,-0.699219,-0.00585938,0.255859,-27,88,-8,-25,-27,-72,11,11,7274
0.396588,-0.671765,-2.95381,-52.125,45.5,-62.8125,-0.451172,0.0629883,0.17334,-32,-12,8,15,-61,-24,-13,-46,7291
0.389792,-0.62604,-2.97844,-58.4375,49.875,-84.875,-0.427246,0.197754,0.678711,24,12,35,-6,-73,-67,-4,30,7308
0.402238,-0.595448,-3.01696,-31.625,29.25,-107,-0.35791,0.816406,1.27197,59,50,55,19,-38,0,20,60,7324
0.402238,-0.595448,-3.01696,-31.625,29.25,-107,-0.35791,0.816406,1.27197,59,50,55,19,-38,0,20,60,7340
0.417599,-0.563082,-3.05175,-14.875,39.625,-105.5,0.270996,1.04688,1.69629,-18,-71,49,-47,20,-7,-31,-8,7357
0.364946,-0.257822,2.96656,-72.625,94.375,-144.188,1.02051,0.970703,1.25439,-59,-113,11,10,47,44,-52,-40,7465
0.356841,-0.216134,2.93115,-53.1875,87.4375,-136.938,0.86377,0.737305,0.891602,37,35,23,14,4,7,22,-12,7482
0.356841,-0.216134,2.93115,-53.1875,87.4375,-136.938,0.86377,0.737305,0.891602,19,50,-6,-12,-2,3,30,13,7499
0.349812,-0.182227,2.89725,-43.6875,66.5,-125.188,0.643066,0.500488,0.631836,19,28,-1,-4,-15,-3,0,27,7516
0.344515,-0.166037,2.86926,-37.9375,46.5,-99,0.532227,0.292969,0.414063,9,-12,8,13,7,16,7,8,7533
0.34064,-0.158881,2.84445,-29.4375,23.75,-81.875,0.468262,0.191406,0.220215,62,55,37,29,-36,20,3,-19,7550
0.34064,-0.158881,2.84445,-29.4375,23.75,-81.875,0.468262,0.191406,0.220215,-34,-5,-36,-34,15,-28,-7,-3,7568
0.33317,-0.163932,2.80881,-32.25,-1.625,-44,0.38623,0.0463867,-0.143066,-34,-34,-60,-15,-18,-37,23,39,7585
0.322555,-0.171484,2.79593,-41.375,-8.1875,-34.625,0.32666,-0.0078125,-0.258301,0,-38,-67,-74,-16,-30,0,11,7603
0.321673,-0.190636,2.78761,-15.625,-28.5,-13.75,0.414551,0.0170898,-0.36084,1,-38,-42,-14,3,-16,0,15,7620
0.32331,-0.215005,2.78275,-6.6875,-30.6875,-2.25,0.547852,0.0175781,-0.356934,43,-10,-8,-8,-31,-13,-27,5,7635
0.32331,-0.215005,2.78275,-6.6875,-30.6875,-2.25,0.547852,0.0175781,-0.356934,5,-7,7,6,-3,5,11,5,7653
0.3191,-0.237609,2.78792,-21.375,-18.6875,24.625,0.524414,0.097168,-0.306152,5,-7,7,6,-3,5,11,5,7671
0.31847,-0.263325,2.79771,-8.625,-23.25,39.8125,0.526855,0.11377,-0.29834,-4,-5,6,14,6,6,-25,-12,7689
0.313552,-0.291969,2.81613,-2.625,-29,63.9375,0.484863,-0.00439453,-0.155762,18,0,8,-4,4,-4,-17,-9,7706
0.313552,-0.291969,2.81613,-2.625,-29,63.9375,0.484863,-0.00439453,-0.155762,3,6,3,0,0,1,-7,-5,7723
0.374698,-0.454645,2.98287,159.813,-105.313,199.938,0.814941,1.2876,1.7124,-54,14,-74,-34,-10,-12,-19,-19,7794
0.408149,-0.524025,3.04337,177.125,-125.125,217.438,1.35693,1.19287,1.91113,20,41,-27,-91,-18,-18,29,-1,7812
0.442866,-0.580612,3.08851,167.438,-102.375,167.188,1.46387,1.16357,1.96777,4,2,-27,-11,-11,-7,4,22,7830
0.460341,-0.619933,3.12329,106.438,-65.625,123.313,1.16016,1.05225,1.93994,25,59,23,9,7,8,-2,12,7848
0.47658,-0.638197,-3.1355,86.375,-54.6875,91.6875,0.89209,0.974121,1.83887,-30,0,18,-10,-4,12,17,2,7864
0.47658,-0.638197,-3.1355,86.375,-54.6875,91.6875,0.89209,0.974121,1.83887,9,-13,32,31,0,-12,-32,-16,7881
0.485098,-0.649062,-3.11965,48.625,-53.0625,71.375,0.570313,0.924805,1.62842,30,33,38,20,32,37,14,-10,7898
0.488469,-0.660606,-3.10429,34.4375,-55.1875,70.1875,0.362305,0.776855,1.37402,72,56,69,63,28,30,2,-27,7915
0.490598,-0.671915,-3.08696,40.6875,-50.875,67.9375,0.201172,0.539551,1.14209,-54,30,22,12,9,10,10,-31,7932
0.502217,-0.681368,-3.07316,59.75,-47.875,59.375,0.0234375,0.458984,0.901855,52,-9,-26,-22,-6,-10,-30,11,7949
0.510634,-0.690483,-3.05885,53,-42.6875,56.875,-0.0727539,0.341797,0.708496,-3,-36,-18,-8,-5,-5,16,-6,7965
0.515383,-0.696263,-3.04509,43.125,-35.75,51.125,-0.253418,0.224121,0.552734,43,4,-7,-10,12,3,21,11,7982
0.514756,-0.700618,-3.02931,34.4375,-27.375,48,-0.395508,0.0385742,0.348145,53,12,-6,13,4,2,-24,1,7999
0.507909,-0.701047,-3.01171,22.1875,-12.125,42,-0.448242,-0.078125,0.215332,87,1,-1,17,-4,-7,-1,7,8017
0.507909,-0.701047,-3.01171,22.1875,-12.125,42,-0.448242,-0.078125,0.215332,-17,1,-2,-19,-14,-2,13,1,8033
0.49363,-0.696111,-2.99395,3.125,2.8125,31.875,-0.504883,-0.17627,0.118652,-52,-7,-2,-19,-8,-1,1,-1,8050
0.443509,-0.646071,-2.98472,-19.125,2.4375,-32.25,-0.440918,-0.157227,0.209961,70,10,-8,-21,2,2,13,35,8115
0.443509,-0.646071,-2.98472,-19.125,2.4375,-32.25,-0.440918,-0.157227,0.209961,35,-5,-7,9,-22,-5,6,9,8131
0.436498,-0.617363,-2.99736,-40,41.125,-53.0625,-0.260742,0.0576172,0.195313,72,26,11,-24,3,2,35,3,8149
0.436498,-0.617363,-2.99736,-40,41.125,-53.0625,-0.260742,0.0576172,0.195313,-53,2,-8,-21,-17,-5,24,10,8166
0.422698,-0.5157,-3.04581,-56.5,59.5625,-99.25,-0.374023,0.567871,1.12402,-32,-46,4,-26,0,1,-40,-23,8183
0.424767,-0.481389,-3.07507,-34.1875,59.3125,-107.438,-0.15625,1.4165,1.91846,-49,9,30,10,14,7,-11,-28,8201
0.424767,-0.481389,-3.07507,-34.1875,59.3125,-107.438,-0.15625,1.4165,1.91846,-54,46,65,38,33,40,79,8,8218
0.421998,-0.438682,-3.1098,-52.125,75.125,-131.625,0.656738,1.80811,2.26123,126,66,31,3,13,5,13,1,8236
0.397503,-0.396285,-3.13559,-100.313,84.3125,-110.563,1.52002,2.02148,2.18555,10,-21,-88,-64,-32,-34,-21,15,8254
0.372658,-0.338571,3.10892,-111.125,114.375,-157.875,1.5415,1.59424,2.05566,-5,-22,-46,-41,-10,-39,32,34,8271
0.346938,-0.271521,3.06849,-108.563,141.063,-171.063,1.12988,1.38916,1.85938,-6,-17,-9,-31,11,1,-2,29,8289
0.326331,-0.207238,3.02379,-99.0625,141.188,-179.188,0.870117,1.15967,1.62109,-68,-51,7,25,-1,8,-10,-18,8306
0.310101,-0.151602,2.98199,-78.625,122.625,-162.25,0.6875,1.125,1.38477,-34,-10,11,22,4,20,-16,-31,8323
0.295903,-0.110212,2.9518,-62.25,99.1875,-119.5,0.808594,0.930664,1.00684,19,16,0,15,-12,-4,24,-7,8340
0.295903,-0.110212,2.9518,-62.25,99.1875,-119.5,0.808594,0.930664,1.00684,1,4,-14,-13,-8,-10,2,1,8357
0.286143,-0.0783531,2.92297,-41,75.9375,-108.125,0.777344,0.532227,0.688477,0,-6,-16,-19,-8,-6,-16,3,8374
0.287053,-0.0522751,2.84435,-12.5625,19.5,-79.5625,0.460449,0.122559,-0.00439453,33,5,12,24,9,8,0,1,8431
0.285332,-0.0521074,2.82526,-16.5625,15.125,-61,0.447754,0.0839844,-0.187012,33,5,12,24,9,8,0,1,8448
0.285332,-0.0521074,2.82526,-16.5625,15.125,-61,0.447754,0.0839844,-0.187012,-4,-1,23,58,11,3,2,-15,8465
0.282331,-0.0541687,2.8096,-19.75,10.1875,-49.4375,0.415039,0.0522461,-0.287109,-93,-29,-9,-7,-4,-2,-27,-46,8482
0.278628,-0.0602248,2.79807,-20.75,1.5,-34.3125,0.398926,0.0322266,-0.332031,-87,-11,-9,-2,-4,-9,-19,5,8499
0.280578,-0.0733935,2.79411,-11.6875,-5.5,-9.0625,0.489258,0.151855,-0.359863,-26,-1,-12,-24,-13,-3,26,12,8516
0.284084,-0.0913159,2.79935,-5.4375,-6.3125,18.875,0.559082,0.141113,-0.38623,-20,-2,-5,-14,-6,-5,4,5,8533
0.288572,-0.111932,2.81153,2.5,-8.4375,40.125,0.547363,0.0957031,-0.371582,53,-6,-3,12,-21,-9,-2,20,8549
0.292299,-0.135603,2.82837,2.5625,-15.5625,56.5625,0.516113,0.139648,-0.246094,-17,4,-6,19,34,-5,10,-8,8567
0.292299,-0.135603,2.82837,2.5625,-15.5625,56.5625,0.516113,0.139648,-0.246094,-30,-29,-18,-18,0,-13,-40,1,8585
0.299391,-0.167212,2.85296,4.1875,-34.5625,87.5625,0.51416,0.438477,0.110352,56,-7,-48,-61,5,-11,-42,10,8602
0.302389,-0.207828,2.89692,23.125,-64.625,151.375,0.748535,0.709473,0.599609,122,73,-7,51,-8,-21,-7,42,8619
0.325058,-0.264424,2.94578,89.125,-106.875,180.063,0.770996,1.03467,1.47949,28,5,93,42,77,109,27,6,8637
0.367599,-0.338618,2.99647,164.75,-153,202.75,0.859863,1.22656,2.02246,125,14,117,127,114,107,54,16,8654
0.410571,-0.41621,3.04802,177.5,-153.75,211.625,1.35693,1.36768,2.26318,0,77,62,29,30,14,3,-93,8671
0.439909,-0.482547,3.09088,137.5,-127.5,179.313,1.13477,1.25635,2.15527,-100,-99,-36,-6,-47,-52,-4,-5,8688
0.463172,-0.614422,-3.09485,44.0625,-77.4375,86.9375,0.119629,0.688477,1.30713,-9,44,-1,-65,17,-5,-58,-39,8770
0.47196,-0.63106,-3.077,52.625,-71.9375,84.625,-0.0874023,0.585938,1.04053,-36,-19,-2,8,-29,-18,39,-8,8787
0.47893,-0.647009,-3.05784,53.9375,-67.9375,83.5625,-0.270508,0.402832,0.805664,-3,-35,2,13,-52,-17,46,22,8804
0.47893,-0.647009,-3.05784,53.9375,-67.9375,83.5625,-0.270508,0.402832,0.805664,-23,-1,-12,-19,0,0,32,7,8821
0.484407,-0.664545,-3.04007,51.375,-67.625,76.625,-0.349609,0.213867,0.584961,-23,10,2,0,-14,-9,-73,-23,8839
0.484407,-0.664545,-3.04007,51.375,-67.625,76.625,-0.349609,0.213867,0.584961,-16,-3,-11,11,-22,-7,-17,8,8855
0.470556,-0.69025,-3.00046,22.9375,-31.3125,57.8125,-0.336914,-0.182129,0.300781,-36,-12,13,47,0,-7,29,-5,8872
0.470556,-0.69025,-3.00046,22.9375,-31.3125,57.8125,-0.336914,-0.182129,0.300781,7,9,37,93,-32,-3,0,-7,8890
0.447184,-0.700268,-2.97358,-6.6875,-28.9375,24.5,-0.414551,-0.142578,0.158691,12,-1,-15,-34,21,3,36,2,8907
0.447184,-0.700268,-2.97358,-6.6875,-28.9375,24.5,-0.414551,-0.142578,0.158691,24,16,-2,-18,7,1,11,2,8924
0.434608,-0.699584,-2.9731,-22.5,-21.9375,-0.3125,-0.349609,-0.187988,0.162109,6,0,0,-10,5,3,1,11,8940
0.421505,-0.689345,-2.97657,-30.0625,0.9375,-21.6875,-0.338379,-0.229004,0.144043,97,-7,11,18,16,-5,-17,-9,8958
0.421505,-0.689345,-2.97657,-30.0625,0.9375,-21.6875,-0.338379,-0.229004,0.144043,-109,-29,-14,-18,-17,-6,-1,-31,8975
0.405695,-0.641945,-2.99682,-40.125,35.5,-51.25,-0.32666,-0.0292969,0.194336,48,3,0,-9,20,1,65,4,8992
0.405695,-0.641945,-2.99682,-40.125,35.5,-51.25,-0.32666,-0.0292969,0.194336,-4,-32,-8,-29,-3,-13,-93,-46,9008
0.399725,-0.608326,-3.01557,-48.5625,37.5,-63.75,-0.241699,0.221191,0.535156,-18,-33,-36,7,-3,-6,13,21,9025
0.361202,-0.394393,3.12534,-109.125,125.375,-162.375,1.38037,1.63135,1.98291,-8,-9,-32,-4,-25,-20,1,-10,9104
0.338357,-0.327009,3.09003,-101,148.938,-155.188,1.17725,1.47119,1.81104,11,-4,-14,-10,6,1,-40,15,9121
0.338357,-0.327009,3.09003,-101,148.938,-155.188,1.17725,1.47119,1.81104,43,-18,5,14,7,-3,-30,10,9138
0.322004,-0.261745,3.05034,-92.5,150.063,-162.5,0.929199,1.30908,1.48975,-10,-31,-20,-27,-10,-14,-12,-1,9156
0.308249,-0.201959,3.015,-74.125,139.875,-146.438,0.708496,1.09082,1.23389,-11,-19,-14,6,-4,-6,-28,2,9173
0.308249,-0.201959,3.015,-74.125,139.875,-146.438,0.708496,1.09082,1.23389,-4,-2,18,12,18,11,-2,2,9190
0.289643,-0.105,2.95588,-41.25,112.938,-117.938,0.689453,0.577148,0.577148,7,9,28,19,12,9,-8,-12,9208
0.281881,-0.0646105,2.92993,-32.6875,98.9375,-105.75,0.551758,0.35791,0.303223,18,4,11,31,16,-1,43,5,9224
0.278073,-0.0395673,2.90741,-26.4375,82.25,-90.375,0.470215,0.211426,0.0942383,-7,1,-10,-68,10,9,36,-7,9241
0.278073,-0.0395673,2.90741,-26.4375,82.25,-90.375,0.470215,0.211426,0.0942383,18,17,-8,-33,-4,1,-8,10,9258
0.273149,-0.0197984,2.88659,-22.4375,65.75,-80,0.414551,0.0888672,-0.0566406,11,-48,-28,-9,-33,-41,-68,-28,9276
0.265186,-0.00540694,2.86977,-28.75,54.6875,-65.375,0.418457,0.0307617,-0.197754,25,-6,-26,-21,-30,-26,73,1,9293
0.254832,0.00449913,2.85708,-33.5,45.375,-49.6875,0.416504,-0.012207,-0.28125,71,-7,-14,-8,2,-14,-48,7,9311
0.254832,0.00449913,2.85708,-33.5,45.375,-49.6875,0.416504,-0.012207,-0.28125,-18,12,12,-3,-4,7,2,-3,9328
0.237689,0.00414666,2.84362,-19.375,21.5625,-21.9375,0.529297,-0.0698242,-0.379395,-15,-4,22,37,-2,7,-9,12,9344
0.239513,-0.00539788,2.84255,-3.625,9.6875,-5.625,0.554199,0.046875,-0.362793,12,-20,-8,-26,-7,8,-34,-2,9362
0.265823,-0.0879935,2.89362,1.0625,-41.4375,96.3125,0.687012,0.683594,0.451172,60,-28,6,-44,-20,-6,36,16,9431
0.283774,-0.132081,2.93041,52.6875,-83.9375,133.688,0.721191,0.944824,1.09961,13,17,-11,-28,-8,-11,-1,15,9448
0.283774,-0.132081,2.93041,52.6875,-83.9375,133.688,0.721191,0.944824,1.09961,22,-5,70,-9,-21,-18,25,10,9465
0.357908,-0.249754,3.01431,131.375,-121.125,172.375,1.11084,1.22559,1.74805,22,-5,70,-9,-21,-18,25,10,9483
0.357908,-0.249754,3.01431,131.375,-121.125,172.375,1.11084,1.22559,1.74805,67,43,-4,33,34,43,-22,-18,9500
0.376559,-0.305686,3.0544,85.0625,-109.938,160.563,1.01807,1.26855,1.85498,28,56,102,112,70,104,-22,-67,9519
0.376559,-0.305686,3.0544,85.0625,-109.938,160.563,1.01807,1.26855,1.85498,-122,-58,41,14,-6,-49,17,-9,9536
0.400944,-0.405184,3.11537,64.0625,-98.8125,120.5,0.776367,0.905762,1.75879,-47,-36,-128,-128,-75,-111,6,54,9553
0.400944,-0.405184,3.11537,64.0625,-98.8125,120.5,0.776367,0.905762,1.75879,-2,15,2,-8,-3,27,16,-3,9570
0.428277,-0.489358,-3.12334,62.8125,-93.1875,105.625,0.349121,0.852539,1.48535,33,15,5,15,-10,34,42,-20,9588
0.436825,-0.531727,-3.09992,55.375,-95,109.688,0.137695,0.73291,1.25879,-38,23,13,-5,25,12,-8,-19,9605
0.439676,-0.573986,-3.07425,45.75,-93.3125,113.375,-0.0146484,0.579102,1.04932,63,13,5,9,1,-3,-37,-10,9622
0.439676,-0.573986,-3.07425,45.75,-93.3125,113.375,-0.0146484,0.579102,1.04932,101,11,0,1,6,6,48,49,9638
0.440563,-0.615168,-3.04779,45.1875,-88.625,111.063,0.00634766,0.406738,0.883301,-6,-17,-4,0,-25,-5,-15,4,9655
0.439129,-0.642983,-3.02136,43.1875,-72.75,99.9375,0.0888672,0.304199,0.737793,19,0,3,1,9,-1,-21,-6,9672
0.438325,-0.661668,-2.99948,37.9375,-51.1875,76.8125,0.0268555,0.234863,0.593262,-2,-26,2,9,-5,-7,-5,-8,9689
0.421595,-0.65556,-2.955,9.0625,6.3125,13.3125,-0.506348,-0.152344,0.195801,-3,-2,-2,27,0,-10,-20,3,9766
0.421595,-0.65556,-2.955,9.0625,6.3125,13.3125,-0.506348,-0.152344,0.195801,20,11,-11,-5,10,-5,29,5,9783
0.412935,-0.611268,-2.96015,-12.4375,23.125,-35.5625,-0.557617,-0.138184,0.157715,20,11,-11,-5,10,-5,29,5,9801
0.401138,-0.580182,-2.96982,-37,40.8125,-51.8125,-0.465332,-0.159668,0.187988,24,-2,-5,-43,17,0,-1,13,9819
0.38871,-0.541114,-2.9829,-45.625,56.8125,-64.75,-0.459961,-0.0776367,0.261719,-27,-26,13,17,1,0,12,1,9835
0.382744,-0.495631,-3.00511,-42.1875,60.375,-88.25,-0.407227,0.0786133,0.50293,-45,-12,-8,1,-4,-1,11,-5,9852
0.382543,-0.456356,-3.03465,-41.0625,63.3125,-105.75,-0.344238,0.531738,1.05469,51,-42,15,52,9,-3,22,5,9869
0.380624,-0.419729,-3.06636,-52.8125,53.875,-106,-0.145508,1.20215,1.56055,-61,-24,14,1,12,11,35,-11,9885
0.363846,-0.387673,-3.09831,-84.25,54.9375,-111.875,0.609375,1.39404,1.99121,-4,38,22,42,-29,5,-15,-16,9902
0.363846,-0.387673,-3.09831,-84.25,54.9375,-111.875,0.609375,1.39404,1.99121,-91,-17,17,-44,3,-18,-81,-28,9919
0.326818,-0.350179,-3.12051,-129,80.8125,-92.375,1.25391,1.50586,2.03271,-114,67,48,3,33,46,-42,-63,9936
0.298851,-0.302411,3.1227,-116.688,96.6875,-145.375,1.07129,1.08301,1.97168,40,-18,-92,-95,-39,-70,60,46,9953
0.290487,-0.252201,3.07581,-71.4375,106.875,-164.5,0.879883,1.20361,1.83789,2,-63,-107,-79,-59,-59,34,57,9970
0.278229,-0.201486,3.03029,-76.625,110.5,-161.688,0.745117,1.23193,1.64111,9,-97,-75,-48,-19,-48,38,53,9987
0.278229,-0.201486,3.03029,-76.625,110.5,-161.688,0.745117,1.23193,1.64111,-74,-44,38,39,12,47,20,-15,10004
0.243276,-0.11849,2.95667,-65.75,88.375,-115.875,0.668945,0.931641,1.14111,7,41,63,51,51,48,-54,-45,10020
0.246702,-0.0393117,2.86128,-29.875,48.1875,-52,0.456543,0.341797,0.0966797,-2,17,-14,-19,-13,-14,-3,-1,10109
0.246702,-0.0393117,2.86128,-29.875,48.1875,-52,0.456543,0.341797,0.0966797,-30,-24,-31,-9,-5,-23,33,15,10126
0.239283,-0.0330669,2.85226,-32.5625,39.8125,-36.0625,0.425781,0.147949,-0.0366211,19,-25,-23,-10,-13,-10,-25,19,10143
0.237903,-0.0308784,2.84675,-9.375,30.1875,-23.4375,0.415039,0.0385742,-0.149902,-20,-21,-10,-18,3,6,1,6,10161
0.237903,-0.0308784,2.84675,-9.375,30.1875,-23.4375,0.415039,0.0385742,-0.149902,-12,-3,0,2,-14,2,8,-1,10177
0.239934,-0.0402959,2.84687,-4.3125,15.3125,2.6875,0.48877,0.0273438,-0.253418,-12,-3,0,2,-14,2,8,-1,10194
0.239934,-0.0402959,2.84687,-4.3125,15.3125,2.6875,0.48877,0.0273438,-0.253418,8,0,-2,11,17,-2,-7,5,10213
0.240177,-0.0640134,2.86179,-4.875,-2.75,29.25,0.430176,0.0610352,-0.180664,4,7,-1,-9,4,-5,-33,-12,10230
0.240177,-0.0640134,2.86179,-4.875,-2.75,29.25,0.430176,0.0610352,-0.180664,-7,-23,-4,0,-2,-5,-3,1,10247
0.240177,-0.0640134,2.86179,-4.875,-2.75,29.25,0.430176,0.0610352,-0.180664,-5,3,9,-5,-12,-7,-8,-4,10265
0.245757,-0.110452,2.89425,4.9375,-35.4375,64.1875,0.434082,0.22168,0.208984,-5,3,9,-5,-12,-7,-8,-4,10282
0.261062,-0.150344,2.92063,24,-62.625,97.5625,0.549805,0.614258,0.675293,3,-11,19,-12,-4,5,-4,1,10298
0.261062,-0.150344,2.92063,24,-62.625,97.5625,0.549805,0.614258,0.675293,-49,-2,14,-8,-5,14,-25,-33,10316
0.27876,-0.197549,2.95598,57.6875,-96.5,132.375,0.72168,0.992676,1.25439,127,-1,81,79,44,66,12,-7,10333
0.335293,-0.315517,3.0374,114.313,-118.688,162.5,1.05371,1.01758,1.8208,-119,36,-39,-1,-14,-54,-3,-80,10349
0.335293,-0.315517,3.0374,114.313,-118.688,162.5,1.05371,1.01758,1.8208,-5,56,-128,-125,-86,-123,30,21,10367
0.399431,-0.456248,3.12728,66.25,-85,111.25,0.678223,1.00635,1.78223,28,27,-35,-47,-13,15,37,16,10428
0.411208,-0.492117,-3.13191,62.9375,-77.125,100.938,0.476563,0.864258,1.61816,36,21,28,-7,-3,19,5,-10,10445
0.42439,-0.514556,-3.10941,61.8125,-68.3125,96.1875,0.298828,0.760742,1.39404,-44,25,55,51,32,24,-6,-38,10462
0.432684,-0.532649,-3.0863,53.6875,-58.0625,91.5,0.126953,0.602539,1.16016,-21,22,26,44,9,-2,-22,-18,10480
0.432684,-0.532649,-3.0863,53.6875,-58.0625,91.5,0.126953,0.602539,1.16016,28,-1,-8,-22,-16,-8,21,9,10497
0.440448,-0.561397,-3.03637,48.9375,-45.125,88.25,-0.174805,0.293945,0.717285,-16,-32,-6,15,-18,-16,-46,-6,10513
0.438455,-0.573454,-3.00935,41.8125,-36.3125,85,-0.243164,0.145508,0.532227,-5,0,2,-7,0,-5,-5,-2,10531
0.430186,-0.583159,-2.98123,27.6875,-28.375,81.9375,-0.330566,0.0341797,0.377441,12,-37,-11,-15,-9,4,17,18,10548
0.430186,-0.583159,-2.98123,27.6875,-28.375,81.9375,-0.330566,0.0341797,0.377441,16,14,13,42,10,-10,-17,1,10565
0.409939,-0.591349,-2.93723,21.6875,-13.0625,45.25,-0.394531,-0.183594,0.200684,0,7,-1,-16,3,8,-12,1,10583
0.409939,-0.591349,-2.93723,21.6875,-13.0625,45.25,-0.394531,-0.183594,0.200684,-7,4,10,19,-4,-6,-42,-4,10600
0.404563,-0.582533,-2.92717,11.125,4.625,16.0625,-0.42041,-0.141113,0.148926,6,18,-9,-3,3,-8,-27,-6,10617
0.404563,-0.582533,-2.92717,11.125,4.625,16.0625,-0.42041,-0.141113,0.148926,4,9,3,-13,-6,3,16,3,10634
0.388928,-0.537626,-2.92489,-19.1875,33.0625,-23.25,-0.517578,-0.0751953,0.145996,5,-3,-5,-4,-1,-5,-10,-5,10651
0.388928,-0.537626,-2.92489,-19.1875,33.0625,-23.25,-0.517578,-0.0751953,0.145996,-36,-26,-7,-10,-1,-3,16,-9,10669
0.380837,-0.506457,-2.93368,-27.375,41.5,-45.375,-0.430664,-0.0424805,0.26709,15,-7,-3,16,3,-3,21,14,10686
0.357966,-0.350157,-3.04752,-119.188,54.1875,-119.375,0.606934,1.45215,2.00049,-93,27,20,6,3,11,-38,-25,10746
0.317801,-0.317617,-3.08434,-149.688,54.75,-125,1.06641,1.20459,1.9292,66,44,35,40,18,24,28,-22,10762
0.317801,-0.317617,-3.08434,-149.688,54.75,-125,1.06641,1.20459,1.9292,-1,-14,-5,16,1,-23,-10,10,10779
0.303923,-0.282185,3.13776,-98.3125,50.9375,-189.875,0.902832,1.01904,1.88623,1,-26,-29,-18,-26,-14,-1,14,10797
0.300783,-0.245658,3.07135,-73,50.5,-204.438,0.728027,1.41797,1.67285,18,-15,-22,-1,-24,-22,18,31,10814
0.279284,-0.210268,3.01001,-118.375,53.75,-190.75,0.644043,1.49561,1.50781,-10,-25,-32,-34,-14,-15,-16,13,10831
0.247289,-0.178843,2.95936,-135.313,55.625,-159.313,0.557617,1.26904,1.26025,12,-20,-17,-24,-10,-5,4,3,10848
0.247289,-0.178843,2.95936,-135.313,55.625,-159.313,0.557617,1.26904,1.26025,-9,-14,15,8,6,17,-15,-16,10865
0.219961,-0.133086,2.88196,-42.4375,44.625,-113.625,0.626953,0.74707,0.711914,-5,6,-1,-3,-3,6,32,-2,10882
0.219961,-0.133086,2.88196,-42.4375,44.625,-113.625,0.626953,0.74707,0.711914,17,21,12,-4,5,7,8,-6,10898
0.23154,-0.126795,2.85175,-15.5,39.8125,-92.0625,0.667969,0.671875,0.467773,6,5,21,32,12,15,20,-9,10916
0.23154,-0.126795,2.85175,-15.5,39.8125,-92.0625,0.667969,0.671875,0.467773,3,11,20,14,11,14,-11,-9,10933
0.232595,-0.114078,2.82184,-41.625,46.875,-37.8125,0.554199,0.385254,0.154297,3,-1,1,-14,-10,-2,38,-6,10950
0.232595,-0.114078,2.82184,-41.625,46.875,-37.8125,0.554199,0.385254,0.154297,31,11,7,-14,2,13,23,-2,10967
0.232595,-0.114078,2.82184,-41.625,46.875,-37.8125,0.554199,0.385254,0.154297,-21,1,7,16,-13,-2,-6,-4,10983
0.224871,-0.110285,2.81826,-33.5625,44.6875,-19.75,0.549805,0.164551,0.0537109,8,25,-14,5,-9,-25,-43,-5,11001
0.236727,-0.15079,2.86925,12.125,-6.5625,50.75,0.481934,0.00244141,0.0175781,-24,-1,0,3,2,-1,-13,-2,11098
0.2432,-0.173084,2.88771,21.9375,-17.25,58.8125,0.526855,0.120117,0.203613,-44,-8,-39,17,-21,-40,21,8,11114
0.259907,-0.201001,2.90903,35.0625,-35.125,75.3125,0.549805,0.519531,0.618652,40,-7,-79,-74,-22,-31,27,41,11132
0.274767,-0.234771,2.94221,53.25,-61.6875,115.438,0.713379,0.921387,1.11963,32,9,12,9,-1,15,-14,5,11149
0.274767,-0.234771,2.94221,53.25,-61.6875,115.438,0.713379,0.921387,1.11963,23,51,50,48,33,49,-32,-29,11166
0.293304,-0.278016,2.9834,73.3125,-79.5,144.938,0.921387,1.03027,1.44629,55,17,71,88,53,67,-13,-14,11182
0.315047,-0.325035,3.02617,91.5,-88.25,152.5,0.919922,0.968262,1.63086,6,103,116,127,89,117,-24,-41,11199
0.315047,-0.325035,3.02617,91.5,-88.25,152.5,0.919922,0.968262,1.63086,-98,-86,-77,-40,-53,-114,62,3,11216
0.367869,-0.419748,3.10273,98.25,-87.25,142.563,0.8125,1.06152,1.67041,-128,-128,-120,-121,-105,-128,7,68,11234
0.375195,-0.460356,3.1384,60,-78.375,132.063,0.670898,0.979492,1.67383,-9,-29,-126,-122,-68,-101,8,101,11252
0.379418,-0.498836,-3.11215,52.5625,-77.1875,121.438,0.52832,0.814941,1.55273,80,14,-56,-58,2,29,-27,16,11270
0.388278,-0.534495,-3.08423,62,-76.875,107.813,0.326172,0.768555,1.3877,-67,62,75,88,59,64,-41,-51,11287
0.388278,-0.534495,-3.08423,62,-76.875,107.813,0.326172,0.768555,1.3877,-27,-2,28,8,13,2,-10,-20,11304
0.402772,-0.556614,-3.06248,62.3125,-77.875,97.875,0.097168,0.727539,1.19971,-13,-42,-5,-8,-9,-16,-15,-2,11321
0.414577,-0.577185,-3.04128,59.4375,-76.125,93.4375,-0.0654297,0.574219,1.00244,-26,-43,-14,-27,-11,-8,2,-4,11337
0.421959,-0.596924,-3.02019,52.0625,-70.25,88.0625,-0.149902,0.407227,0.787598,63,-3,-7,-17,-7,2,-11,4,11354
0.411449,-0.621304,-2.95822,11.0625,-1.4375,10.25,-0.405273,-0.129395,0.316895,-39,-5,-1,-10,1,6,-7,-3,11436
0.408369,-0.601497,-2.95718,3.8125,14.375,-12.125,-0.546387,-0.100586,0.258789,0,8,1,-7,-14,-3,44,11,11453
0.403969,-0.57555,-2.96074,-8,26.25,-27.875,-0.578125,-0.106445,0.217773,-15,-4,-12,-24,1,-4,0,-12,11470
0.403969,-0.57555,-2.96074,-8,26.25,-27.875,-0.578125,-0.106445,0.217773,-15,-12,3,4,-2,0,-1,4,11486
0.398476,-0.546431,-2.97013,-20.25,32.5625,-45.3125,-0.505859,-0.090332,0.222656,10,-8,-10,-21,-6,-2,5,3,11503
0.393289,-0.513595,-2.98541,-25.375,39.25,-64.8125,-0.413086,-0.0932617,0.300781,75,12,-17,-36,-5,-6,39,14,11521
0.391286,-0.4745,-3.00795,-31,47.875,-84.4375,-0.354492,0.0786133,0.432129,91,-20,-12,10,-13,2,-29,27,11540
0.396962,-0.44164,-3.03737,-22.1875,46.5625,-100.688,-0.37793,0.402344,0.805176,-35,-32,-10,-8,3,6,-59,-18,11557
0.406033,-0.41101,-3.0719,-20,32.8125,-109.563,-0.260254,0.872559,1.25928,-38,7,66,51,32,26,-10,-40,11572
0.410313,-0.377142,-3.10967,-36.5,44.6875,-124.875,0.334961,1.1626,1.56152,-29,53,26,48,27,29,23,-9,11589
0.410313,-0.377142,-3.10967,-36.5,44.6875,-124.875,0.334961,1.1626,1.56152,-42,27,18,34,-3,-16,-47,-6,11606
0.398198,-0.335075,3.1341,-74.1875,69,-144.688,0.673828,1.5332,1.83105,113,116,61,76,19,3,-16,-20,11623
0.37873,-0.289764,3.09272,-92.3125,77.625,-153.813,0.921875,1.52637,1.91895,-63,-47,-128,-94,-68,-114,57,66,11641
0.355439,-0.239373,3.04858,-99.75,90.75,-165.75,0.917969,1.59961,1.92529,-112,-126,-128,-95,-54,-75,25,59,11658
0.32774,-0.190132,3.00527,-106,92.25,-161.75,0.887695,1.45117,1.77539,-96,-125,-53,-38,-20,-16,5,31,11675
0.305051,-0.14871,2.96427,-97.625,86.9375,-147.938,0.822266,1.27344,1.48584,44,45,95,104,52,68,-9,-47,11693
0.258783,-0.0694947,2.86825,-48.375,53.8125,-97.25,0.560547,0.470703,0.558105,28,-18,-25,-20,-2,-1,-13,15,11765
0.251981,-0.0609744,2.84507,-39.5,36.5,-76.9375,0.461914,0.33252,0.351563,-2,-15,-29,-40,-8,-15,22,-3,11782
0.246038,-0.0594274,2.8269,-30.75,19.75,-58.1875,0.432617,0.20459,0.183105,8,-33,-19,-4,-22,-8,-75,-2,11799
0.243153,-0.0641359,2.81325,-21.25,4.875,-40.6875,0.414551,0.171875,0.0327148,-17,-24,-7,28,5,-4,-13,-8,11816
0.240219,-0.0737509,2.8037,-20.5,-4.9375,-26.125,0.417969,0.133789,-0.0805664,-6,-9,13,4,2,18,-11,-5,11833
0.237587,-0.0859719,2.79848,-13.625,-9.6875,-12.9375,0.40625,0.0302734,-0.17041,-43,2,27,17,15,17,25,-9,11849
0.239547,-0.100697,2.79557,-0.1875,-17.0625,-3.875,0.369629,0.0234375,-0.214844,14,1,19,-11,-6,-8,4,1,11866
0.239547,-0.100697,2.79557,-0.1875,-17.0625,-3.875,0.369629,0.0234375,-0.214844,10,0,-15,-31,-10,0,21,14,11883
0.246552,-0.120219,2.79597,11.5,-24.8125,8.3125,0.416504,0.0839844,-0.199219,10,0,-15,-31,-10,0,21,14,11901
0.256485,-0.146094,2.80303,18.1875,-29.75,30,0.533691,0.139648,-0.206055,-22,-13,-9,-13,-20,-17,-62,-9,11917
0.264688,-0.173074,2.81726,11.875,-21.9375,50.5625,0.612793,0.212402,-0.219238,-93,-25,-31,-9,2,-3,6,-6,11933
0.264688,-0.173074,2.81726,11.875,-21.9375,50.5625,0.612793,0.212402,-0.219238,52,10,-15,50,13,-10,29,18,11952
0.264688,-0.173074,2.81726,11.875,-21.9375,50.5625,0.612793,0.212402,-0.219238,53,8,-66,-27,-7,-2,32,23,11969
0.294058,-0.259828,2.90289,69.5625,-54.3125,125.875,0.688477,0.864258,0.907227,-52,22,6,18,21,18,10,-11,11986
0.294058,-0.259828,2.90289,69.5625,-54.3125,125.875,0.688477,0.864258,0.907227,127,-31,93,45,25,44,-1,-14,12004
0.323241,-0.311438,2.94952,110.5,-97.75,169.125,0.744141,1.14014,1.37695,-24,-111,101,85,42,78,12,-10,12021
0.389644,-0.520012,3.12997,51.6875,-63.5625,111.063,0.976074,1.0459,1.83789,41,-22,-9,-15,-7,-3,-7,4,12116
0.418856,-0.551877,-3.11966,57.1875,-51.625,71.3125,0.397949,0.887207,1.41748,10,10,29,30,20,35,6,-14,12132
0.418856,-0.551877,-3.11966,57.1875,-51.625,71.3125,0.397949,0.887207,1.41748,-12,10,38,27,20,23,-1,-31,12149
0.430806,-0.563533,-3.1034,46.6875,-47.5625,73.3125,0.213867,0.771973,1.18164,24,3,-15,-34,-7,-6,-34,-23,12166
0.430806,-0.563533,-3.1034,46.6875,-47.5625,73.3125,0.213867,0.771973,1.18164,5,-6,3,-17,-12,-11,6,2,12183
0.447751,-0.585955,-3.06293,64.9375,-47,75.875,-0.126953,0.369629,0.825195,-23,-13,-8,-35,-15,-12,-20,-1,12200
0.461506,-0.598563,-3.04029,81.1875,-40.6875,75.625,-0.140625,0.208008,0.620605,-2,-23,-18,15,-35,-12,-3,11,12217
0.461506,-0.598563,-3.04029,81.1875,-40.6875,75.625,-0.140625,0.208008,0.620605,12,9,10,4,-1,4,6,2,12234
0.482227,-0.604411,-3.00105,51.5,-4.1875,53.5625,-0.313477,0.128906,0.299805,-6,-3,2,11,2,-4,9,4,12251
0.482227,-0.604411,-3.00105,51.5,-4.1875,53.5625,-0.313477,0.128906,0.299805,-1,-28,1,-18,-6,0,-1,-11,12269
0.479607,-0.598769,-2.97991,32.5,9.5625,46.9375,-0.415039,-0.015625,0.184082,17,-18,-2,-11,-1,6,3,10,12286
0.479607,-0.598769,-2.97991,32.5,9.5625,46.9375,-0.415039,-0.015625,0.184082,51,25,11,10,-1,0,6,11,12303
0.479607,-0.598769,-2.97991,32.5,9.5625,46.9375,-0.415039,-0.015625,0.184082,-8,5,1,12,3,-6,3,2,12320
0.436893,-0.552599,-2.94674,-21.8125,12.625,-4.75,-0.657715,-0.213867,0.108887,-6,2,-35,-9,-6,0,2,-1,12337
0.436893,-0.552599,-2.94674,-21.8125,12.625,-4.75,-0.657715,-0.213867,0.108887,-2,-7,-27,9,5,-2,-5,3,12354
0.431926,-0.507846,-2.96846,-3.4375,17.5,-56.9375,-0.418945,-0.0981445,0.213867,-26,-34,-30,-11,-11,-8,-2,-5,12372
0.458135,-0.424104,-3.06482,-61.875,17.8125,-107.75,0.376953,1.45068,1.6499,-64,-25,5,-34,-5,9,9,-7,12438
0.436004,-0.387806,-3.10217,-105.813,51.25,-133.75,0.851563,1.53516,1.93799,-65,42,38,-29,18,30,-11,-19,12455
0.436004,-0.387806,-3.10217,-105.813,51.25,-133.75,0.851563,1.53516,1.93799,40,26,-1,-32,-14,-32,1,5,12472
0.397819,-0.294167,3.08781,-95.3125,77.5625,-178.25,0.838867,1.57861,1.80029,33,20,-34,-29,-34,-48,-9,25,12489
0.397819,-0.294167,3.08781,-95.3125,77.5625,-178.25,0.838867,1.57861,1.80029,-20,-42,-67,-19,-27,-56,-44,14,12506
0.397819,-0.294167,3.08781,-95.3125,77.5625,-178.25,0.838867,1.57861,1.80029,-9,-36,-89,-37,-23,-32,9,21,12523
0.368198,-0.243829,3.04234,-119.625,86.875,-170.313,0.805664,1.62012,1.60596,-20,-55,-66,-14,-4,3,10,17,12540
0.368198,-0.243829,3.04234,-119.625,86.875,-170.313,0.805664,1.62012,1.60596,-5,0,27,27,23,27,-17,-18,12556
0.313031,-0.1558,2.94349,-49.25,50.5,-92.125,0.852539,0.809082,0.798828,42,18,31,37,1,22,-8,-7,12573
0.313031,-0.1558,2.94349,-49.25,50.5,-92.125,0.852539,0.809082,0.798828,0,22,24,39,-3,-8,-27,-14,12590
0.312639,-0.139511,2.89866,-44.1875,53.1875,-74.1875,0.770996,0.544434,0.387695,0,15,-7,12,29,10,-9,-8,12607
0.312639,-0.139511,2.89866,-44.1875,53.1875,-74.1875,0.770996,0.544434,0.387695,8,-10,-18,-43,-12,-29,65,-1,12624
0.304619,-0.130375,2.88206,-44.5,50.5625,-63.4375,0.638672,0.311035,0.234863,10,-3,-10,-18,0,-14,6,2,12642
0.304619,-0.130375,2.88206,-44.5,50.5625,-63.4375,0.638672,0.311035,0.234863,39,7,-11,-39,-1,-3,6,11,12659
0.295518,-0.116109,2.85811,-22.1875,39.9375,-39,0.479004,0.10791,-0.10498,15,-10,-40,-13,1,-5,-20,-9,12677
0.293707,-0.114314,2.85246,-13.25,34,-26.4375,0.490234,0.0185547,-0.259277,-13,-7,-5,-20,-11,0,-7,3,12695
0.291226,-0.122924,2.85168,-5.4375,19.5625,-1.4375,0.523438,-0.0180664,-0.293945,-12,-14,9,62,14,-15,36,2,12744
0.293686,-0.133289,2.85758,4.5,14.875,13.8125,0.556641,-0.00390625,-0.258301,-31,-13,2,-24,45,5,44,-10,12761
0.293686,-0.133289,2.85758,4.5,14.875,13.8125,0.556641,-0.00390625,-0.258301,-6,-2,-45,-94,-41,-4,32,-6,12778
0.31087,-0.170252,2.88348,9.4375,-3.375,52.625,0.662109,0.366699,0.000488281,-12,-3,-28,-27,-5,-3,14,19,12795
0.31087,-0.170252,2.88348,9.4375,-3.375,52.625,0.662109,0.366699,0.000488281,5,-4,-13,-5,-17,-17,-28,9,12813
0.318351,-0.194246,2.90893,4.0625,-13.4375,85.3125,0.555176,0.599121,0.423828,18,-10,-99,-87,-40,-42,-12,30,12831
0.372767,-0.28806,2.99405,133.625,-102.563,181.5,0.770508,1.02295,1.27637,114,98,124,101,58,96,5,-33,12848
0.372767,-0.28806,2.99405,133.625,-102.563,181.5,0.770508,1.02295,1.27637,-46,20,102,114,102,127,-36,-70,12864
0.408771,-0.353702,3.04821,144,-111.688,208.063,1.08398,1.2085,1.60449,-96,22,121,127,112,123,28,-95,12881
0.426153,-0.411351,3.09829,103.438,-97.0625,188.563,1.35938,1.34814,1.7876,-122,-62,10,29,5,-28,30,-81,12898
0.433166,-0.454923,3.13711,62.5,-72.4375,146.5,0.950195,1.16113,1.86328,90,-12,-128,-128,-92,-114,-5,92,12914
0.439232,-0.491749,-3.11356,56,-64.9375,123.938,0.732422,1.09912,1.76904,8,-37,-128,-105,-44,-72,-6,89,12931
0.445803,-0.524266,-3.08835,51.5625,-64.3125,102,0.501465,0.974121,1.61133,-19,-23,-55,-53,-18,-18,22,59,12949
0.445803,-0.524266,-3.08835,51.5625,-64.3125,102,0.501465,0.974121,1.61133,61,-8,-15,6,14,22,-26,11,12968
0.457852,-0.544196,-3.06773,55.125,-64.0625,93.375,0.317871,0.863281,1.39795,61,-8,-15,6,14,22,-26,11,12985
0.467955,-0.560622,-3.04776,49.1875,-55.125,88.5625,0.173828,0.771973,1.16406,42,51,62,67,36,33,-6,-36,13002
0.472359,-0.59748,-2.97646,39.125,-39.5,88.125,-0.273438,0.319824,0.598633,18,-19,-3,-13,-17,-12,-7,6,13051
0.472359,-0.59748,-2.97646,39.125,-39.5,88.125,-0.273438,0.319824,0.598633,2,-13,0,12,1,-6,-15,-1,13069
0.470692,-0.607495,-2.95115,38.3125,-35,83.375,-0.36084,0.20752,0.460449,-24,10,-2,-3,-11,-2,3,8,13086
0.465596,-0.615667,-2.92724,31.1875,-28.5625,72.1875,-0.418457,0.0297852,0.304199,-16,-8,7,19,9,3,8,-1,13103
0.458282,-0.619194,-2.90748,22.4375,-20.6875,53.125,-0.474609,-0.102051,0.210938,26,14,2,-12,4,8,-7,-2,13120
0.453762,-0.615133,-2.89641,13.4375,-11.6875,28.0625,-0.529785,-0.0761719,0.177246,-14,-2,3,36,14,-3,10,1,13137
0.448538,-0.603755,-2.89245,-1.375,-2.5625,6,-0.568848,-0.0527344,0.178711,11,17,-4,-25,-5,1,7,-12,13154
0.44029,-0.585677,-2.89403,-17.25,9.3125,-15.5,-0.575195,-0.0996094,0.166992,-5,-7,-6,-13,-5,-9,-63,-11,13171
0.435363,-0.560103,-2.90378,-18.8125,20.4375,-42.8125,-0.508301,-0.0849609,0.24707,-5,-8,-16,-29,1,0,35,9,13189
0.443178,-0.525658,-2.92532,-3.0625,31,-77.125,-0.404297,0.0673828,0.404297,16,31,36,27,0,-6,-26,4,13207
0.45524,-0.491638,-2.95451,-7.3125,46,-102.5,-0.304688,0.433105,0.75,55,-12,-30,-29,-4,-5,7,9,13225
0.45524,-0.491638,-2.95451,-7.3125,46,-102.5,-0.304688,0.433105,0.75,58,-61,-27,-23,-7,1,11,14,13242
0.462307,-0.451014,-2.99065,-31.25,50.25,-125.313,-0.209473,0.975098,1.3374,25,-52,0,-3,8,5,1,-2,13259
0.456735,-0.40842,-3.03122,-70,54.125,-142.125,0.253906,1.23633,1.76367,8,-25,42,42,17,20,-18,-15,13276
0.434796,-0.362166,-3.07346,-108.5,71.25,-158.375,0.72168,1.38818,1.979,4,6,3,2,-4,13,9,-7,13294
0.434796,-0.362166,-3.07346,-108.5,71.25,-158.375,0.72168,1.38818,1.979,-78,106,25,16,27,33,4,-39,13311
0.304634,-0.127235,3.00702,-92.0625,72.5625,-106.438,0.833008,1.00391,1.12549,-36,-57,87,58,63,88,-29,-53,13391
0.298587,-0.113516,2.98036,-57.5625,65.6875,-96.25,0.850098,0.734375,0.852539,26,47,127,64,37,90,-1,-56,13408
0.298587,-0.113516,2.98036,-57.5625,65.6875,-96.25,0.850098,0.734375,0.852539,126,111,46,46,30,2,13,0,13425
0.299997,-0.102784,2.95528,-41.25,55.5,-87.625,0.760254,0.750977,0.583008,25,68,-10,-24,-15,-28,62,13,13443
0.299997,-0.102784,2.95528,-41.25,55.5,-87.625,0.760254,0.750977,0.583008,4,-2,-16,-11,-9,-18,17,16,13460
0.28921,-0.0921408,2.92518,-41.0625,39.0625,-48.3125,0.612305,0.320313,0.186035,-7,-22,-34,-40,-19,-18,12,17,13477
0.284563,-0.0915391,2.9129,-26.1875,25.25,-43.25,0.511719,0.157227,0.0341797,52,-27,-31,-34,-18,-23,-39,13,13493
0.285077,-0.0957709,2.90159,-9.4375,13.25,-36.875,0.503418,0.0927734,-0.104004,-2,-29,-28,-10,-6,-16,1,10,13510
0.285291,-0.102013,2.89194,-7.75,9.875,-30.875,0.510254,0.0292969,-0.211426,-26,-20,-16,-7,-3,-4,-45,-1,13527
0.285291,-0.102013,2.89194,-7.75,9.875,-30.875,0.510254,0.0292969,-0.211426,-22,-2,15,15,-7,6,-9,-6,13544
0.284786,-0.10971,2.88399,-10.625,6.9375,-24.8125,0.494141,0.0175781,-0.292969,7,1,-1,-11,8,1,18,-1,13562
0.283317,-0.120168,2.87978,-14.1875,2.625,-12.5,0.493164,0.0375977,-0.318359,16,3,2,18,12,-1,6,9,13579
0.281411,-0.135177,2.88017,-15.1875,-4.125,3.625,0.527344,0.0664063,-0.296387,-31,5,4,7,3,2,-6,-8,13596
0.279266,-0.158015,2.88674,-15.75,-14.25,25.6875,0.626465,0.119141,-0.25,23,-2,1,-12,-15,-2,10,-2,13613
0.279844,-0.188365,2.89969,-10.9375,-27.5,49.1875,0.70752,0.274414,-0.0205078,-64,-3,1,3,-2,-3,6,-4,13630
0.285206,-0.227223,2.92291,-1.75,-43.375,87.25,0.783203,0.56543,0.344238,-6,-9,-37,-30,-5,-3,29,8,13647
0.359977,-0.387891,3.03606,132.688,-137.563,170.625,0.981445,1.14551,1.77344,75,18,-72,-82,-26,-33,0,49,13713
0.387601,-0.451497,3.07627,125.938,-131.125,164.625,0.964355,1.26514,1.90381,127,-4,127,127,127,127,-25,-114,13730
0.40635,-0.504687,3.11082,95.25,-108.5,143,0.968262,1.06787,1.81201,-90,41,-103,-104,-85,-115,0,16,13747
0.41886,-0.545935,3.13508,67.5625,-89.375,107,0.809082,1.04395,1.78662,17,-18,-67,-44,-36,-41,-3,52,13763
0.41886,-0.545935,3.13508,67.5625,-89.375,107,0.809082,1.04395,1.78662,-47,-43,-60,-54,-30,-36,-2,41,13780
0.434672,-0.569299,-3.13247,59.1875,-77.5625,83.4375,0.580078,0.940918,1.6416,23,-47,-48,-24,-22,-11,-11,25,13797
0.453331,-0.587418,-3.12036,64.4375,-72.8125,72.5625,0.367676,0.862305,1.45654,21,14,38,35,13,25,-26,-12,13814
0.47106,-0.603648,-3.10863,62.9375,-68.125,70,0.205566,0.753418,1.21924,-9,7,46,38,8,23,-1,-28,13832
0.481305,-0.619703,-3.09528,49.4375,-61.9375,68.5,0.0893555,0.550293,0.980469,-21,7,40,59,24,12,-19,-33,13849
0.481305,-0.619703,-3.09528,49.4375,-61.9375,68.5,0.0893555,0.550293,0.980469,11,-6,-6,-23,-18,-7,-13,-16,13866
0.486433,-0.634137,-3.08156,40.5,-55,62.6875,-0.0107422,0.36377,0.784668,-5,-1,-12,-24,-16,-8,-3,8,13883
0.487934,-0.646452,-3.06542,36.125,-44.3125,61.8125,-0.0913086,0.245117,0.616699,-4,-6,-4,6,-5,-8,2,3,13900
0.484336,-0.656783,-3.04546,30.0625,-32.9375,64,-0.17334,0.131836,0.464844,9,-9,1,7,1,4,45,6,13917
0.476579,-0.664101,-3.02346,25.125,-22.25,60.3125,-0.256348,0.00488281,0.337891,5,-7,-3,-12,7,-2,-4,4,13934
0.465502,-0.667569,-3.00153,20.6875,-13,49.8125,-0.340332,-0.160645,0.245117,-3,12,17,13,-14,-1,24,-3,13951
0.455818,-0.665911,-2.98366,16.5,-6.75,37.125,-0.397461,-0.144043,0.226563,3,12,3,4,15,2,-40,0,13969
0.42165,-0.624591,-2.96326,-13.9375,24.625,-23.8125,-0.438477,-0.123535,0.277344,50,-10,-9,-17,5,12,55,12,14032
0.411427,-0.587644,-2.97384,-36.1875,52.375,-58.25,-0.416504,-0.0639648,0.321777,-27,-21,-18,-35,-15,1,-35,-20,14049
0.404652,-0.537307,-2.9938,-43.25,69.125,-87.3125,-0.420898,0.120605,0.591309,8,5,18,27,14,9,38,3,14066
0.404652,-0.537307,-2.9938,-43.25,69.125,-87.3125,-0.420898,0.120605,0.591309,70,52,-6,114,14,0,-22,-4,14083
0.412432,-0.492664,-3.02485,-22.1875,72.9375,-115.688,-0.338379,0.524414,1.10547,-11,-6,-30,37,13,12,5,-8,14100
0.422069,-0.446003,-3.06033,-27.375,71,-125.625,-0.194824,1.33008,1.59229,-36,27,58,56,6,3,9,-3,14116
0.412175,-0.404974,-3.09334,-67.4375,72.375,-126.375,0.410645,1.62305,1.89404,-27,7,-21,17,-4,-17,-29,-6,14132
0.384642,-0.360532,-3.12331,-111.063,86.5,-123.063,1.04297,1.57031,1.95996,7,-29,-53,-49,-19,-7,11,20,14149
0.384642,-0.360532,-3.12331,-111.063,86.5,-123.063,1.04297,1.57031,1.95996,24,4,-32,-71,-7,-12,17,17,14166
0.352118,-0.253577,3.0694,-79.0625,100.688,-171.813,0.864258,1.58887,1.91455,-19,-28,2,-11,-4,-9,13,12,14183
0.352118,-0.253577,3.0694,-79.0625,100.688,-171.813,0.864258,1.58887,1.91455,-23,-21,-10,-6,2,-9,5,3,14200
0.329116,-0.205201,3.02194,-110.625,94.125,-170.563,0.824707,1.45508,1.68408,-17,-23,-2,-20,-10,2,-3,-1,14217
0.297517,-0.162239,2.973,-127.375,81.5,-169.125,0.628906,1.1123,1.37158,-9,-6,6,42,9,1,-10,-10,14233
0.269014,-0.127418,2.92654,-110.563,65.875,-155.25,0.554688,0.873047,1.02686,15,13,-2,-32,14,10,-21,-24,14250
0.248915,-0.101709,2.8855,-79.375,50.125,-133,0.593262,0.68457,0.677734,6,10,8,-7,12,-9,32,16,14266
0.248915,-0.101709,2.8855,-79.375,50.125,-133,0.593262,0.68457,0.677734,20,-22,-19,-55,1,3,7,7,14283
0.208838,-0.0906805,2.76994,-15.1875,10.625,-27.5625,0.441895,0.0664063,-0.308105,10,-13,-15,-35,-4,3,39,12,14383
0.216481,-0.102006,2.76697,8.9375,0.9375,-7.6875,0.478516,0.0957031,-0.383301,-29,-2,-2,-34,-16,5,6,-1,14399
0.22021,-0.116672,2.77013,-0.3125,1.6875,10.0625,0.570801,0.0986328,-0.375488,-3,-22,-3,57,7,1,2,22,14415
0.221666,-0.132142,2.77956,-4,2.75,28.125,0.571777,0.101563,-0.286133,13,-3,-3,-1,4,1,-12,-2,14432
0.22302,-0.151152,2.79804,-2.75,0.1875,55.875,0.603516,0.17041,-0.171387,-17,-2,3,6,2,-2,-34,-4,14449
0.22302,-0.151152,2.79804,-2.75,0.1875,55.875,0.603516,0.17041,-0.171387,7,22,-23,-94,-22,-1,-22,-11,14466
0.224895,-0.201428,2.85541,11.375,-41.8125,104.313,0.64209,0.502441,0.412109,-20,-23,-39,-41,-2,1,-38,-11,14483
0.224895,-0.201428,2.85541,11.375,-41.8125,104.313,0.64209,0.502441,0.412109,-6,4,-12,-28,-4,0,4,3,14501
0.239057,-0.240777,2.89646,59.25,-73.0625,136.938,0.85498,0.633789,0.912109,-43,-7,20,-4,-3,2,-8,-13,14517
0.269363,-0.287768,2.94016,111.688,-91.8125,150.813,0.924316,0.817871,1.27686,-13,9,38,1,10,-2,42,6,14534
0.305547,-0.338834,2.9833,134.25,-103.188,155.563,0.850098,0.976563,1.57227,7,6,-14,-27,-10,-26,20,-6,14551
0.335104,-0.392133,3.02563,119.813,-109.063,158.875,0.845703,1.18799,1.89551,60,14,15,41,50,70,-19,-29,14569
0.335104,-0.392133,3.02563,119.813,-109.063,158.875,0.845703,1.18799,1.89551,-16,-19,69,54,25,34,18,-16,14586
0.352979,-0.443789,3.0645,92.125,-108.25,148.813,0.82666,1.03516,2.02783,-72,48,-3,-18,3,5,22,-19,14603
0.367086,-0.489911,3.10054,83.875,-94.875,135.813,0.854492,0.936523,1.93457,-17,-28,-109,-96,-69,-90,10,51,14620
0.379277,-0.52794,3.12952,72.3125,-79.875,111.188,0.745117,0.935547,1.71973,42,-50,-108,-74,-49,-66,-73,43,14638
0.409385,-0.594558,-3.04066,36.4375,-35.375,73,-0.202637,0.282227,0.633789,49,5,-11,-31,-12,-1,53,6,14738
0.40872,-0.601434,-3.01935,35.875,-32.3125,66.3125,-0.285645,0.157227,0.487793,-1,5,9,14,0,7,-2,8,14755
0.406645,-0.606725,-2.99883,32.3125,-25.8125,60.25,-0.339355,0.0576172,0.339844,-1,-4,-4,13,2,-2,28,17,14772
0.40215,-0.609873,-2.98174,21.75,-21.875,47.875,-0.418457,-0.0405273,0.202637,5,-5,-2,-18,1,2,-21,2,14789
0.397784,-0.610218,-2.97114,14.8125,-22,28.9375,-0.463379,-0.117676,0.176758,-23,10,1,1,-1,-5,2,-16,14806
0.397784,-0.610218,-2.97114,14.8125,-22,28.9375,-0.463379,-0.117676,0.176758,47,-18,-7,-29,-29,4,30,14,14822
0.394857,-0.608251,-2.96741,9,-22.25,9.875,-0.436523,-0.135742,0.197266,36,15,-9,-39,-1,-6,44,23,14839
0.39232,-0.603522,-2.96598,5.75,-12.0625,0.6875,-0.334961,-0.114746,0.220215,-12,-4,1,9,-15,-4,20,-2,14856
0.39232,-0.603522,-2.96598,5.75,-12.0625,0.6875,-0.334961,-0.114746,0.220215,-62,-5,2,28,26,2,7,7,14873
0.395238,-0.590825,-2.97172,5.0625,5,-21.25,-0.248535,-0.00292969,0.265137,24,5,22,36,-17,2,-2,2,14890
0.401763,-0.568471,-2.98753,-2.625,17.75,-51.125,-0.274902,0.0668945,0.318359,53,-9,-4,-55,-37,-4,60,15,14907
0.411351,-0.535505,-3.01186,-7.625,32.875,-79.875,-0.215332,0.192871,0.522949,41,19,0,-47,3,5,9,1,14924
0.423379,-0.502284,-3.04274,-11.5,45.1875,-102.75,-0.199707,0.5625,0.94873,-7,-17,-46,-12,7,2,-50,-11,14942
0.434358,-0.469071,-3.07693,-18.8125,37.625,-109.688,-0.14209,0.976563,1.42871,-50,-49,36,51,-4,3,28,-5,14959
0.440851,-0.440289,-3.112,-31.6875,27.5,-109.688,0.311523,1.26025,1.76904,-75,-15,58,-20,-8,0,11,-3,14976
0.425878,-0.415653,-3.13973,-75.75,33.6875,-95.25,1.27441,1.50439,1.79688,30,59,44,90,34,38,-55,-53,14993
0.396062,-0.335898,3.06298,-86.8125,72.75,-151.5,1.05664,1.3042,1.71777,-44,-52,-44,-64,-33,-28,-20,17,15048
0.396062,-0.335898,3.06298,-86.8125,72.75,-151.5,1.05664,1.3042,1.71777,-60,-48,-16,-11,13,4,2,5,15065
0.354523,-0.253101,2.98076,-108.063,73.4375,-146.563,0.708984,1.09375,1.36621,-68,-53,-2,-6,-1,13,-25,-16,15083
0.334437,-0.221343,2.94705,-89.4375,60.875,-119.688,0.697754,0.959961,1.09277,35,28,32,10,13,1,-1,-8,15100
0.328346,-0.205289,2.91795,-68.375,55.125,-97.375,0.740723,0.772461,0.753906,25,89,5,-16,46,9,-7,-40,15117
0.324114,-0.191326,2.89028,-56.5,43.625,-90.75,0.55957,0.61084,0.470703,-51,-92,-33,-22,-34,-9,20,39,15136
0.318144,-0.181783,2.86801,-51,35.375,-73.625,0.5,0.429688,0.263672,95,-7,1,36,-52,-26,41,69,15153
0.318144,-0.181783,2.86801,-51,35.375,-73.625,0.5,0.429688,0.263672,-128,-90,31,66,-5,-6,-105,-45,15171
0.307776,-0.172822,2.85079,-54.875,34.6875,-59.25,0.400391,0.280762,0.0805664,108,2,-1,-39,1,10,-62,-32,15188
0.296385,-0.164667,2.83606,-51.1875,29,-50.1875,0.283691,0.167969,-0.0473633,20,47,46,12,41,35,-59,-54,15205
0.285927,-0.159614,2.82637,-45,26.5625,-35.0625,0.290039,0.112793,-0.161621,76,64,15,20,16,-16,40,24,15222
0.276443,-0.15787,2.81836,-40,22,-28.4375,0.317383,0.0620117,-0.277832,-30,43,-7,17,0,-11,28,23,15238
0.264997,-0.158007,2.81545,-42.4375,25.875,-14.375,0.390625,0.0546875,-0.283691,90,85,38,14,5,9,30,20,15255
0.254783,-0.160025,2.82249,-35.1875,31.5,13.75,0.432617,0.0507813,-0.329102,18,21,12,58,52,-5,25,22,15272
0.250204,-0.16877,2.83283,-23.375,17,28.125,0.462402,0.13916,-0.347656,52,40,-7,-25,37,16,1,6,15289
0.250204,-0.16877,2.83283,-23.375,17,28.125,0.462402,0.13916,-0.347656,-84,-26,-6,-4,-9,-7,-6,-17,15306
0.358539,-0.381802,3.03739,137.063,-112.313,176.25,1.40039,1.10254,1.73486,-40,-16,-116,-33,-62,-49,30,38,15414
0.358539,-0.381802,3.03739,137.063,-112.313,176.25,1.40039,1.10254,1.73486,127,106,127,127,115,127,-19,-94,15431
0.358539,-0.381802,3.03739,137.063,-112.313,176.25,1.40039,1.10254,1.73486,-101,30,127,123,92,114,-43,-101,15448
0.384903,-0.465414,3.1014,71.875,-79.8125,106.813,0.844238,0.82666,1.89502,76,11,-124,-112,-92,-125,29,127,15465
0.400566,-0.496166,3.12012,64.8125,-82.375,88.25,0.717773,0.837891,1.78076,8,-5,-100,-75,-27,-27,-23,43,15482
0.413422,-0.523932,3.13207,47.3125,-88.125,74.375,0.524902,0.797852,1.56836,-23,-48,-21,-20,5,9,-22,16,15499
0.415862,-0.549218,-3.13486,31,-81.75,79.25,0.31543,0.58252,1.31543,73,-54,15,57,14,31,-8,-5,15517
0.422464,-0.575586,-3.11761,46.375,-86.4375,83.4375,0.131348,0.464355,1.07764,4,24,44,23,25,40,-5,-32,15534
0.426835,-0.605023,-3.09573,47.1875,-80.375,93.875,0.214844,0.424805,0.908691,-7,25,45,18,14,20,0,-21,15551
0.426835,-0.605023,-3.09573,47.1875,-80.375,93.875,0.214844,0.424805,0.908691,0,-18,-9,4,-6,-10,-29,-14,15568
0.429023,-0.628616,-3.074,43.0625,-63.875,84.375,0.166504,0.344727,0.774414,60,-22,23,55,4,-8,-17,-2,15584
0.424945,-0.644977,-3.05108,34.6875,-44.875,72.125,0.0859375,0.166504,0.679688,30,-63,-11,52,-16,-23,0,6,15602
0.414155,-0.653988,-3.02484,23.375,-24.1875,68.8125,-0.0629883,0.0541992,0.513672,-1,14,40,96,-4,-7,5,-1,15619
0.414851,-0.658175,-3.00544,40.125,-19.1875,52.9375,-0.202148,0.0834961,0.375,-8,104,61,61,4,22,2,3,15637
0.409689,-0.658724,-2.99137,15.5,-11.6875,35.25,-0.243652,0.00585938,0.261719,99,46,7,24,33,20,-11,14,15653
0.394826,-0.652004,-2.97445,-5.5625,8.0625,32.1875,-0.324219,-0.0620117,0.196289,42,37,19,-18,19,3,-21,-3,15670
0.36261,-0.590723,-2.9717,-22.5,34.4375,-29.25,-0.564941,-0.134277,0.0522461,-12,38,28,21,-48,-8,-40,-38,15744
0.359284,-0.558006,-2.98343,-24.9375,42.8125,-48.1875,-0.574219,-0.0141602,0.104492,86,85,102,54,5,-28,-27,14,15760
0.357608,-0.519722,-3.00001,-26.5,36.4375,-59.125,-0.567383,0.160645,0.581055,-22,-35,4,-44,-19,-17,-35,-21,15778
0.376608,-0.481045,-3.03208,-17.875,18.75,-76.8125,-0.271484,0.963379,1.23779,58,47,2,64,23,14,22,28,15794
0.376608,-0.481045,-3.03208,-17.875,18.75,-76.8125,-0.271484,0.963379,1.23779,-20,-17,-41,-25,-14,-3,74,30,15811
0.38332,-0.440812,-3.06369,-49.5625,43.625,-89.8125,0.363281,1.19238,1.81152,52,30,103,-4,1,26,11,6,15829
0.375501,-0.404515,-3.08426,-46.625,76.6875,-88.5,0.713867,1.49316,2.11621,14,72,59,97,27,27,19,-19,15847
0.365267,-0.355351,-3.10878,-55.25,107.625,-111.875,1.1377,1.40381,1.95947,7,57,-2,-15,-16,-11,2,-26,15863
0.357256,-0.291521,3.13723,-66.3125,139.5,-157.25,0.836914,1.2998,1.84619,-23,-4,-61,-74,-7,-22,8,17,15880
0.353281,-0.227274,3.09712,-50.375,136.438,-166.5,0.569824,1.24805,1.76855,-2,-8,-26,-22,-34,-21,34,26,15898
0.345384,-0.174276,3.05478,-59,108.125,-163.688,0.663574,1.32129,1.55176,-1,38,-11,-15,-16,-7,-24,16,15915
0.326669,-0.128896,3.01282,-79.625,93.9375,-157.438,0.811035,0.958008,1.35693,23,2,9,-1,21,6,-51,-1,15932
0.304421,-0.0844514,2.98552,-76.25,106.875,-116.25,0.688477,0.588379,1.05225,76,22,36,5,24,31,37,-2,15949
0.304421,-0.0844514,2.98552,-76.25,106.875,-116.25,0.688477,0.588379,1.05225,2,19,19,0,-7,14,-14,-17,15966
0.29774,-0.0500791,2.95854,-31,81.5625,-105.563,0.655273,0.632324,0.727051,-42,19,8,52,7,-1,12,-12,15983
0.283806,-0.0319946,2.93234,-71.375,69.25,-98.0625,0.626953,0.572754,0.480469,-11,11,-4,-16,4,-4,18,4,16000
0.245835,-0.00596285,2.85991,-15,24.5625,-69.75,0.383301,0.184082,0.109375,23,10,-5,6,4,-3,33,27,16078
0.245835,-0.00596285,2.85991,-15,24.5625,-69.75,0.383301,0.184082,0.109375,-2,-6,-19,-6,9,-2,22,22,16094
0.229194,-0.0075689,2.83494,-56.25,28.25,-39.75,0.498535,0.133789,-0.0581055,35,-6,-5,-6,25,-13,-19,3,16111
0.214786,-0.0089402,2.82702,-42.125,26.5625,-29.3125,0.526367,0.00537109,-0.0268555,-89,-110,-1,20,44,-5,-54,-62,16128
0.214786,-0.0089402,2.82702,-42.125,26.5625,-29.3125,0.526367,0.00537109,-0.0268555,119,127,1,-128,24,58,109,78,16145
0.21032,-0.0133025,2.82989,-18.8125,29.625,2.3125,0.594727,0.0791016,-0.03125,43,23,21,4,4,-1,23,0,16162
0.217312,-0.0239149,2.83934,-3.1875,22.5625,23.1875,0.695313,0.31543,-0.168945,5,-2,-15,-29,-10,-5,21,2,16178
0.201084,-0.0359155,2.86448,-28.0625,23.4375,36.5,0.461426,0.208008,0.233887,-15,-12,-9,25,-6,-11,-10,15,16195
0.201084,-0.0359155,2.86448,-28.0625,23.4375,36.5,0.461426,0.208008,0.233887,-28,-34,-20,-2,-10,-12,4,-16,16213
0.21583,-0.0546792,2.88062,16.125,-17.25,52.3125,0.419434,0.563477,0.697754,27,12,6,-2,-17,-13,-2,14,16230
0.238299,-0.0907774,2.90344,39.0625,-67.75,84.5625,0.383301,0.706055,1.125,-36,-36,-10,4,-15,-15,-5,-8,16247
0.238299,-0.0907774,2.90344,39.0625,-67.75,84.5625,0.383301,0.706055,1.125,21,71,-25,-27,-5,-8,9,29,16264
0.262936,-0.143338,2.9397,77.0625,-116.75,137.125,0.421387,0.727051,1.43555,-6,-56,-26,25,-19,-26,-5,6,16281
0.297686,-0.207308,2.98177,114.563,-138.5,164.563,0.672363,0.844727,1.62988,84,67,-64,-63,-40,-29,9,34,16297
0.330441,-0.275291,3.01636,110.813,-153.875,153.125,0.670898,1.04932,1.83594,23,-19,-9,-2,3,20,-28,-7,16314
0.354461,-0.339319,3.05183,96.5,-140.688,153.938,0.674805,0.875977,1.81201,113,68,115,97,75,117,-14,-53,16331
0.415412,-0.493957,3.12887,106.625,-111.813,107.5,0.404297,0.712891,1.39795,-25,-9,20,2,14,25,-38,-17,16394
0.437729,-0.557994,-3.11719,35.0625,-85,95.0625,0.134766,0.494141,1.01221,-25,-9,20,2,14,25,-38,-17,16411
0.437729,-0.557994,-3.11719,35.0625,-85,95.0625,0.134766,0.494141,1.01221,-68,3,22,16,8,7,-11,-24,16427
0.441182,-0.585301,-3.09454,50.5,-81.8125,95.1875,-0.0351563,0.300781,0.833984,1,10,5,17,6,-3,8,-5,16445
0.451509,-0.61141,-3.07132,68,-76.0625,96.125,-0.153809,0.276367,0.60498,1,-24,-4,-1,3,-7,3,-1,16461
0.456376,-0.634736,-3.04476,60,-62.5,97.875,-0.233398,0.18457,0.431641,27,-21,-19,-29,-5,-4,-19,-9,16479
0.456376,-0.634736,-3.04476,60,-62.5,97.875,-0.233398,0.18457,0.431641,-13,-10,-11,-23,-6,-2,5,1,16496
0.464815,-0.654124,-3.01792,72.0625,-49.875,92.0625,-0.290527,0.134277,0.322266,-19,-1,5,24,-1,-5,10,7,16512
0.467295,-0.667649,-2.98553,68.1875,-27.75,92.125,-0.307617,0.0473633,0.256836,8,-1,0,-4,-9,-4,-8,-4,16529
0.469225,-0.671475,-2.95555,62.75,-9,76.9375,-0.437988,0.0336914,0.199707,-12,-4,1,5,-6,0,-1,-2,16546
0.463548,-0.665526,-2.92624,45.375,8.6875,60.5,-0.583008,-0.100098,0.192383,-10,9,2,1,-29,-3,-5,-3,16563
0.463548,-0.665526,-2.92624,45.375,8.6875,60.5,-0.583008,-0.100098,0.192383,-98,-90,-19,91,12,-13,-65,-85,16580
0.442231,-0.627948,-2.88954,5.125,25.1875,15.1875,-0.581055,-0.0517578,0.365234,-61,-11,7,22,12,1,17,-23,16597
0.44246,-0.599317,-2.88604,20.125,35.125,-17.875,-0.432129,-0.0170898,0.528809,22,13,-6,-5,-2,-2,9,14,16614
0.44246,-0.599317,-2.88604,20.125,35.125,-17.875,-0.432129,-0.0170898,0.528809,16,37,8,-67,11,9,32,16,16631
0.460178,-0.560516,-2.90668,17.75,27.125,-67.9375,-0.370605,0.421387,0.840332,-1,18,36,55,8,-2,20,1,16648
0.462852,-0.409122,-3.05969,-95.25,80.5625,-170.313,0.991211,1.53027,1.95801,41,11,25,29,13,16,-15,2,16721
0.462852,-0.409122,-3.05969,-95.25,80.5625,-170.313,0.991211,1.53027,1.95801,-50,28,46,118,-19,-17,8,-3,16738
0.413044,-0.296471,3.12847,-122.875,89.4375,-190.375,1.03711,1.51465,1.82959,93,47,-11,-2,6,-4,-10,-26,16754
0.413044,-0.296471,3.12847,-122.875,89.4375,-190.375,1.03711,1.51465,1.82959,-22,-76,-71,-56,-35,-44,-15,26,16772
0.413044,-0.296471,3.12847,-122.875,89.4375,-190.375,1.03711,1.51465,1.82959,-36,-77,-35,-12,6,-9,23,26,16789
0.367579,-0.194777,3.04517,-88.5,101.375,-149.938,0.874023,1.23584,1.26025,-15,-14,35,68,53,31,-19,-23,16807
0.344628,-0.150699,3.01117,-93.8125,96.5,-136.188,0.850098,1.03125,0.933105,-6,33,48,31,20,33,7,-31,16823
0.344628,-0.150699,3.01117,-93.8125,96.5,-136.188,0.850098,1.03125,0.933105,120,77,29,14,3,0,21,8,16841
0.302837,-0.0751445,2.94985,-62.125,80.8125,-108.188,0.698242,0.523926,0.467773,25,6,-2,-1,-9,-4,-2,2,16858
0.299694,-0.0572522,2.92687,-40.3125,71.25,-89.1875,0.63916,0.473633,0.204102,-17,-7,-7,-4,-9,-7,-14,-4,16876
0.299694,-0.0572522,2.92687,-40.3125,71.25,-89.1875,0.63916,0.473633,0.204102,-23,-11,-16,-34,1,-1,0,2,16894
0.304839,-0.0385796,2.89571,-5.75,45.125,-53.8125,0.59082,0.210449,-0.233398,-6,-6,-2,-1,-1,-4,-26,-6,16912
0.315572,-0.0383714,2.88515,12.9375,35.5,-42.625,0.66748,0.16748,-0.282227,10,-3,-10,-15,-13,-11,-20,-8,16928
0.315572,-0.0383714,2.88515,12.9375,35.5,-42.625,0.66748,0.16748,-0.282227,12,-8,-16,10,-7,-20,-33,-1,16945
0.32555,-0.0449915,2.88214,12.5,29.3125,-18.25,0.752441,0.130859,-0.333496,58,-24,-18,-11,-9,-11,12,20,16962
0.32555,-0.0449915,2.88214,12.5,29.3125,-18.25,0.752441,0.130859,-0.333496,-22,-14,10,61,-2,-4,-15,-9,16981
0.337946,-0.127598,2.91724,-4.6875,-35.4375,60.8125,0.623535,0.0488281,-0.0078125,31,73,-56,-55,-22,-27,10,24,17042
0.341812,-0.166839,2.93604,11.5,-55.1875,77.1875,0.572754,0.224609,0.329102,-22,-5,-33,-39,-10,-12,-27,-2,17060
0.341812,-0.166839,2.93604,11.5,-55.1875,77.1875,0.572754,0.224609,0.329102,-11,46,106,64,27,40,-20,-32,17078
0.341812,-0.166839,2.93604,11.5,-55.1875,77.1875,0.572754,0.224609,0.329102,15,-20,43,14,20,27,10,-19,17095
0.378047,-0.274195,2.9906,76.0625,-132.313,144.125,0.535156,1.05469,1.30957,0,-30,-13,-7,20,30,12,-10,17112
0.378047,-0.274195,2.9906,76.0625,-132.313,144.125,0.535156,1.05469,1.30957,72,27,69,96,24,3,9,-38,17129
0.378047,-0.274195,2.9906,76.0625,-132.313,144.125,0.535156,1.05469,1.30957,-128,-100,-128,-128,-126,-128,5,57,17147
0.45108,-0.474045,3.08607,101.375,-121.438,140.563,0.968262,1.11914,1.72559,-82,-74,-118,-117,-121,-125,10,119,17164
0.45108,-0.474045,3.08607,101.375,-121.438,140.563,0.968262,1.11914,1.72559,34,-64,-110,-128,-75,-95,-11,85,17181
0.462642,-0.520412,3.11421,67.5,-90.5,125.5,0.930176,1.1582,1.74268,69,-3,-37,-36,-2,7,10,26,17198
0.462642,-0.520412,3.11421,67.5,-90.5,125.5,0.930176,1.1582,1.74268,47,7,40,86,1,19,-90,-8,17215
0.468339,-0.576267,-3.11844,41.4375,-57.6875,99.3125,0.457031,0.880859,1.49121,-6,28,9,1,16,24,-3,-16,17232
0.468339,-0.576267,-3.11844,41.4375,-57.6875,99.3125,0.457031,0.880859,1.49121,-38,-11,27,4,14,15,-40,-21,17250
0.468339,-0.576267,-3.11844,41.4375,-57.6875,99.3125,0.457031,0.880859,1.49121,-29,-12,14,8,5,7,14,-14,17268
0.482523,-0.613708,-3.04118,45.625,-28.375,88.875,-0.0151367,0.460449,0.839355,2,-8,-12,-5,-5,-11,-6,2,17285
0.482523,-0.613708,-3.04118,45.625,-28.375,88.875,-0.0151367,0.460449,0.839355,4,-10,-20,-16,0,-4,17,6,17303
0.461416,-0.645473,-2.92799,26.125,-0.625,51.8125,-0.21875,-0.046875,0.297852,-5,7,-1,-3,5,11,49,-7,17372
0.461416,-0.645473,-2.92799,26.125,-0.625,51.8125,-0.21875,-0.046875,0.297852,13,0,0,-3,-7,-7,15,5,17389
0.456153,-0.620027,-2.89714,22.6875,29.625,12.3125,-0.402344,-0.0263672,0.162598,4,20,-6,0,-6,-8,-47,-5,17407
0.453625,-0.595232,-2.89132,8.3125,38.5625,-8.375,-0.515625,-0.0585938,0.129883,39,18,-18,-22,3,-9,-70,-5,17422
0.453625,-0.595232,-2.89132,8.3125,38.5625,-8.375,-0.515625,-0.0585938,0.129883,14,-16,-13,1,-7,-6,22,0,17440
0.453625,-0.595232,-2.89132,8.3125,38.5625,-8.375,-0.515625,-0.0585938,0.129883,-39,-43,-53,-70,-10,-9,-15,-12,17457
0.451907,-0.53326,-2.89623,2.4375,38.5625,-39.0625,-0.541992,-0.0527344,0.240234,10,-34,-12,-26,4,-5,-53,3,17474
0.455934,-0.501218,-2.90903,3.0625,25.75,-54.1875,-0.477539,0.0634766,0.506836,-22,-16,-1,-10,-6,-4,3,-1,17491
0.47603,-0.46549,-2.93695,13.375,10.125,-80.5,-0.334473,0.614258,0.98291,-74,-27,-47,14,0,12,13,-41,17508
0.492716,-0.432897,-2.97413,-18.625,2.0625,-98.625,0.0864258,1.07813,1.36572,47,7,14,63,23,29,41,-4,17525
0.491335,-0.403615,-3.01254,-52.625,24.625,-125.375,0.65332,1.15723,1.646,-46,13,3,-13,-10,-16,4,12,17541
0.491335,-0.403615,-3.01254,-52.625,24.625,-125.375,0.65332,1.15723,1.646,-72,61,27,30,9,25,-19,-33,17558
0.457957,-0.307469,-3.10676,-102.563,69.6875,-187.5,0.900879,1.62891,1.92236,78,77,36,19,7,30,-11,-38,17575
0.457957,-0.307469,-3.10676,-102.563,69.6875,-187.5,0.900879,1.62891,1.92236,-2,-48,-54,-30,-18,-36,28,42,17594
0.427022,-0.256121,3.12984,-125.938,78.125,-178.938,1.01904,1.64063,1.79004,-35,-102,-87,-85,-45,-65,0,49,17611
0.427022,-0.256121,3.12984,-125.938,78.125,-178.938,1.01904,1.64063,1.79004,-13,-45,-15,-25,-4,2,-4,10,17628
0.346006,-0.137078,3.00553,-95.625,64.8125,-138.188,0.758789,0.978516,0.986328,26,11,7,12,2,6,-36,9,17696
0.314779,-0.0991784,2.94171,-71.375,39.4375,-98.75,0.627441,0.710938,0.539063,4,8,6,5,6,6,0,5,17713
0.304619,-0.096091,2.91876,-65.25,25,-73.5,0.581055,0.560059,0.327637,-8,-4,-11,-58,-15,-7,-16,3,17730
0.304619,-0.096091,2.91876,-65.25,25,-73.5,0.581055,0.560059,0.327637,-17,-5,-9,-3,-2,0,-16,-7,17747
0.304619,-0.096091,2.91876,-65.25,25,-73.5,0.581055,0.560059,0.327637,-17,-11,-9,-1,-24,-12,0,1,17764
0.304619,-0.096091,2.91876,-65.25,25,-73.5,0.581055,0.560059,0.327637,-7,0,-11,-9,-21,-18,-28,-11,17782
0.278316,-0.104642,2.86715,-25.1875,-1.4375,-45.9375,0.383301,0.0874023,-0.149414,7,-8,-5,-8,5,-3,24,3,17797
0.279092,-0.112574,2.85246,-9.3125,-5.875,-41,0.39209,0.0375977,-0.26416,18,-10,-1,0,0,4,0,-3,17814
0.279092,-0.112574,2.85246,-9.3125,-5.875,-41,0.39209,0.0375977,-0.26416,-18,-4,2,9,1,-1,-32,-9,17830
0.290831,-0.137088,2.83492,6.25,-13.3125,-13.6875,0.435059,0.0986328,-0.356445,-22,-3,-3,29,-1,-7,-57,-10,17847
0.301985,-0.158172,2.83208,15.5,-25.25,1.75,0.47998,0.125488,-0.358398,3,2,-1,-7,-5,1,-8,3,17865
0.301985,-0.158172,2.83208,15.5,-25.25,1.75,0.47998,0.125488,-0.358398,8,11,4,21,2,-4,-15,-3,17882
0.32342,-0.219043,2.84023,4.1875,-42,39.5,0.620117,0.352539,-0.046875,22,18,9,12,12,7,70,3,17899
0.337141,-0.261189,2.85827,17.625,-64.75,84,0.648926,0.677734,0.428711,29,98,17,17,14,16,9,-6,17917
0.337141,-0.261189,2.85827,17.625,-64.75,84,0.648926,0.677734,0.428711,13,13,19,22,7,13,0,-7,17934
0.337141,-0.261189,2.85827,17.625,-64.75,84,0.648926,0.677734,0.428711,114,-97,125,69,45,60,27,-13,17951
0.493737,-0.522122,3.02939,119.438,-68.3125,130.875,1.08984,1.12402,1.75049,62,-7,-79,-29,-12,-37,2,70,18023
0.493737,-0.522122,3.02939,119.438,-68.3125,130.875,1.08984,1.12402,1.75049,13,-4,-21,-5,8,22,-37,18,18039
0.501314,-0.557743,3.06299,70.0625,-55.4375,124.625,0.854004,1.05713,1.75098,27,31,50,21,41,68,-23,-40,18056
0.501314,-0.557743,3.06299,70.0625,-55.4375,124.625,0.854004,1.05713,1.75098,-37,41,87,55,32,65,-27,-49,18072
0.501314,-0.557743,3.06299,70.0625,-55.4375,124.625,0.854004,1.05713,1.75098,-18,24,38,27,6,8,-43,-24,18089
0.52642,-0.621303,-3.13891,70,-38.8125,90.0625,0.268555,0.731445,1.20361,-5,-9,6,14,-9,0,20,-21,18105
0.52642,-0.621303,-3.13891,70,-38.8125,90.0625,0.268555,0.731445,1.20361,-7,-25,-11,-10,-18,-16,-16,8,18122
0.530199,-0.637391,-3.08328,47.4375,-17.8125,84.3125,-0.0507813,0.404785,0.759766,24,-35,-11,-19,-5,-1,14,10,18139
0.530199,-0.637391,-3.08328,47.4375,-17.8125,84.3125,-0.0507813,0.404785,0.759766,-4,-7,-6,0,-6,-7,-1,1,18156
0.526906,-0.641202,-3.0546,42.625,-11.375,80.125,-0.207031,0.296875,0.608398,-5,4,-5,-4,-3,1,15,3,18174
0.526906,-0.641202,-3.0546,42.625,-11.375,80.125,-0.207031,0.296875,0.608398,-16,2,3,18,2,0,-29,-5,18191
0.515909,-0.645143,-2.99966,40.3125,-4.5,63.125,-0.382813,-0.0380859,0.314453,-11,13,-7,15,2,0,-6,-2,18208
0.511792,-0.641335,-2.97865,34.1875,4.9375,44,-0.407227,-0.0820313,0.213867,-18,-3,-2,-1,-4,-11,11,-6,18224
0.511792,-0.641335,-2.97865,34.1875,4.9375,44,-0.407227,-0.0820313,0.213867,-14,-10,1,-5,-21,-4,5,4,18241
0.500352,-0.617137,-2.95895,2.0625,14.625,-6,-0.509277,-0.255371,0.115723,-9,6,-10,5,6,2,-11,-8,18258
0.500352,-0.617137,-2.95895,2.0625,14.625,-6,-0.509277,-0.255371,0.115723,-2,-10,-7,9,17,-11,-87,-17,18275
0.516608,-0.441739,-3.11568,-68.4375,34,-133.75,0.415039,1.23975,1.50244,-54,0,60,25,15,12,1,-11,18382
0.498416,-0.39228,3.12601,-107,71.3125,-160.813,0.774902,1.37207,1.66309,-49,40,43,61,25,19,9,-27,18397
0.498416,-0.39228,3.12601,-107,71.3125,-160.813,0.774902,1.37207,1.66309,-56,49,38,1,8,32,-18,-34,18414
0.498416,-0.39228,3.12601,-107,71.3125,-160.813,0.774902,1.37207,1.66309,118,68,-38,-29,-22,-39,4,30,18432
0.456941,-0.271936,3.03769,-111.625,106.688,-181.313,0.734375,1.54541,1.70361,-54,-84,-113,-60,-44,-66,18,47,18449
0.42154,-0.211257,3.0006,-126.75,113.313,-167.313,0.819824,1.58496,1.66846,-73,-106,-67,-62,-35,-22,-18,25,18466
0.42154,-0.211257,3.0006,-126.75,113.313,-167.313,0.819824,1.58496,1.66846,-8,-54,27,25,0,36,12,-13,18484
0.360155,-0.120385,2.9453,-95.1875,93.625,-111.125,0.807129,1.08154,1.16602,29,4,95,49,37,58,17,-26,18501
0.344506,-0.085585,2.92185,-61.0625,82.6875,-100.625,0.808105,0.878906,0.853516,36,53,43,40,26,26,2,-28,18519
0.344506,-0.085585,2.92185,-61.0625,82.6875,-100.625,0.808105,0.878906,0.853516,51,42,25,25,12,12,25,-5,18536
0.344506,-0.085585,2.92185,-61.0625,82.6875,-100.625,0.808105,0.878906,0.853516,0,5,-25,-24,-16,-26,-3,9,18553
0.326469,-0.0528073,2.89028,-66.25,68.4375,-57.5625,0.659668,0.632324,0.480957,-4,3,-22,-16,-12,-8,-11,6,18571
0.313386,-0.045834,2.88326,-56.125,51.5,-37.4375,0.603516,0.368652,0.298828,40,-11,-22,-24,4,-4,7,10,18589
0.313386,-0.045834,2.88326,-56.125,51.5,-37.4375,0.603516,0.368652,0.298828,40,-11,-22,-24,4,-4,7,10,18606
0.313386,-0.045834,2.88326,-56.125,51.5,-37.4375,0.603516,0.368652,0.298828,-19,-6,-29,-27,-12,-19,0,7,18623
0.30763,-0.0476714,2.87004,-13.6875,19.8125,-22.125,0.498535,0.15625,-0.0151367,-10,-25,-22,-11,-7,-12,16,8,18641
0.306667,-0.0959976,2.87683,-10.5,-10.5625,19.4375,0.479492,0.0751953,-0.189453,-1,-3,0,21,5,-1,21,9,18707
0.306667,-0.0959976,2.87683,-10.5,-10.5625,19.4375,0.479492,0.0751953,-0.189453,-27,-9,-33,-5,0,-8,22,-1,18724
0.307563,-0.146248,2.89986,-1.375,-31.25,52.875,0.532715,0.156738,0.00927734,20,-11,-11,-16,-8,-8,46,9,18741
0.312954,-0.183127,2.91979,4,-49.5,78.6875,0.595215,0.42627,0.355957,3,30,-6,-21,-3,11,-21,-9,18757
0.312954,-0.183127,2.91979,4,-49.5,78.6875,0.595215,0.42627,0.355957,25,27,2,68,24,22,-9,-9,18774
0.312954,-0.183127,2.91979,4,-49.5,78.6875,0.595215,0.42627,0.355957,60,56,84,47,44,75,-17,-38,18791
0.34014,-0.279417,2.98375,76.6875,-111.875,140.25,0.804199,0.846191,1.229,127,24,118,104,83,124,-17,-47,18807
0.369196,-0.340932,3.01931,108.875,-126.625,152.313,0.907227,0.935547,1.5459,-117,-53,45,-3,-8,-43,13,-25,18824
0.369196,-0.340932,3.01931,108.875,-126.625,152.313,0.907227,0.935547,1.5459,-107,-28,-128,-128,-85,-121,13,23,18840
0.427119,-0.456522,3.0827,100.875,-112.75,138.188,0.928711,1.15234,1.79541,-11,20,-120,-121,-75,-105,14,66,18857
0.427119,-0.456522,3.0827,100.875,-112.75,138.188,0.928711,1.15234,1.79541,20,-39,-75,-1,-32,-28,8,61,18874
0.44302,-0.502978,3.11105,79.8125,-94.5,125.188,0.847168,1.10645,1.85449,5,-17,-37,-24,-16,-5,-48,25,18891
0.44302,-0.502978,3.11105,79.8125,-94.5,125.188,0.847168,1.10645,1.85449,7,5,31,14,17,37,-21,-18,18907
0.46797,-0.567915,-3.12696,62.75,-73.125,97.8125,0.484863,0.884766,1.56006,13,41,52,52,33,41,-19,-32,18924
0.480121,-0.58545,-3.10716,63.4375,-60.625,86,0.275391,0.733398,1.31934,-36,28,58,33,19,29,11,-42,18942
0.480121,-0.58545,-3.10716,63.4375,-60.625,86,0.275391,0.733398,1.31934,-23,-10,28,36,24,9,13,-19,18959
0.501197,-0.618954,-3.01969,48.3125,-22.6875,70.6875,-0.280273,0.123535,0.474121,1,-6,-6,2,-4,-3,34,8,19039
0.48764,-0.620134,-2.97506,20.6875,0.9375,44.3125,-0.366699,-0.129395,0.260742,25,17,-1,3,2,3,-15,4,19057
0.48764,-0.620134,-2.97506,20.6875,0.9375,44.3125,-0.366699,-0.129395,0.260742,3,1,1,21,9,1,1,-5,19073
0.48764,-0.620134,-2.97506,20.6875,0.9375,44.3125,-0.366699,-0.129395,0.260742,6,25,1,-3,3,-1,23,13,19090
0.469322,-0.590241,-2.95109,8.3125,21.125,-1.125,-0.520996,-0.183105,0.248535,6,25,1,-3,3,-1,23,13,19107
0.469322,-0.590241,-2.95109,8.3125,21.125,-1.125,-0.520996,-0.183105,0.248535,9,-15,-11,-2,-19,-16,-6,8,19124
0.464604,-0.564192,-2.95131,-0.5625,30.625,-25.9375,-0.518066,-0.13916,0.234863,-12,15,-7,-12,-7,0,-35,-5,19141
0.464604,-0.564192,-2.95131,-0.5625,30.625,-25.9375,-0.518066,-0.13916,0.234863,-5,-11,-11,-16,-4,-1,-14,7,19158
0.464604,-0.564192,-2.95131,-0.5625,30.625,-25.9375,-0.518066,-0.13916,0.234863,11,-19,9,-46,-8,-9,-5,2,19175
0.456338,-0.440643,-2.99994,-23.625,51.5,-99,-0.439453,0.241211,0.685547,24,-28,15,2,3,0,9,10,19192
0.456338,-0.440643,-2.99994,-23.625,51.5,-99,-0.439453,0.241211,0.685547,-52,-30,17,8,11,16,6,-22,19208
0.456338,-0.440643,-2.99994,-23.625,51.5,-99,-0.439453,0.241211,0.685547,32,49,25,37,15,9,0,-20,19226
0.449287,-0.316846,-3.11416,-100.25,68,-151.75,0.558594,1.39307,1.68066,-99,48,12,14,4,14,15,-25,19244
0.449287,-0.316846,-3.11416,-100.25,68,-151.75,0.558594,1.39307,1.68066,127,27,-23,-16,-19,-23,-13,35,19260
0.39686,-0.212279,3.07724,-102.25,87.5625,-183.625,0.652344,1.53174,1.86133,-7,-63,-63,-53,-32,-46,-19,47,19277
0.39686,-0.212279,3.07724,-102.25,87.5625,-183.625,0.652344,1.53174,1.86133,-80,-119,-75,-34,-24,-59,-25,41,19295
0.319867,-0.0612458,2.95112,-39.5,69.1875,-112.125,0.731934,0.736328,0.946289,38,127,72,68,20,15,21,-22,19365
0.319867,-0.0612458,2.95112,-39.5,69.1875,-112.125,0.731934,0.736328,0.946289,-20,-64,-117,-90,-46,-62,24,54,19381
0.31434,-0.0152346,2.89636,-24.5625,60.875,-97,0.605469,0.488281,0.470703,-3,-75,-75,-66,-44,-36,-50,28,19397
0.31434,-0.0152346,2.89636,-24.5625,60.875,-97,0.605469,0.488281,0.470703,5,-27,-16,-10,12,5,17,13,19415
0.311492,-0.00532316,2.87458,-30.1875,42.1875,-79.1875,0.520508,0.423828,0.287109,0,-9,-7,-14,-8,-3,-13,-4,19432
0.311492,-0.00532316,2.87458,-30.1875,42.1875,-79.1875,0.520508,0.423828,0.287109,-41,1,-8,-9,2,12,13,0,19450
0.308347,-0.00702927,2.84584,-9.4375,7.5625,-40.4375,0.450195,0.11084,-0.0161133,-14,4,7,-1,-9,3,1,-5,19468
0.308371,-0.0151789,2.83634,-4.625,-1.625,-28,0.441406,0.0292969,-0.124512,-10,11,20,15,7,7,8,-11,19485
0.308371,-0.0151789,2.83634,-4.625,-1.625,-28,0.441406,0.0292969,-0.124512,26,-5,14,13,13,9,-4,-8,19502
0.303713,-0.037939,2.82916,-13.5625,-6.875,-2.6875,0.429199,0.00146484,-0.225098,9,-4,12,7,5,9,18,-7,19520
0.301478,-0.0544557,2.83192,-12.6875,-10.6875,11.9375,0.480957,0.0405273,-0.186523,-17,-16,-19,-15,-4,-5,15,3,19537
0.301478,-0.0544557,2.83192,-12.6875,-10.6875,11.9375,0.480957,0.0405273,-0.186523,61,59,-24,3,-5,-12,-12,8,19555
0.301478,-0.0544557,2.83192,-12.6875,-10.6875,11.9375,0.480957,0.0405273,-0.186523,-29,-56,-41,-24,-27,-23,9,8,19573
0.301288,-0.103655,2.8543,-7.3125,-18.6875,50.8125,0.632813,0.200195,0.0390625,-7,13,-19,-18,-18,-15,-4,-2,19589
0.308232,-0.133805,2.87604,1.9375,-26.8125,76.5,0.62793,0.514648,0.435059,-12,-12,-35,-13,-10,-3,-16,2,19605
0.308232,-0.133805,2.87604,1.9375,-26.8125,76.5,0.62793,0.514648,0.435059,46,57,41,51,34,49,-16,-29,19622
0.370395,-0.262391,2.98933,107.938,-94.4375,166.063,0.92627,1.01123,1.50928,61,69,77,42,-19,-33,-5,-38,19692
0.417294,-0.36402,3.07423,88.125,-82.125,158.75,0.820313,1.05615,1.70313,-128,-128,-128,-128,-99,-128,35,53,19709
0.429322,-0.407409,3.1129,73.0625,-72.5,146.875,0.74707,1.01904,1.74463,-73,-105,-128,-128,-123,-126,32,127,19726
0.43775,-0.446259,-3.13711,59.875,-69.25,129.125,0.589844,1.06543,1.7373,25,-75,-126,-124,-80,-106,21,124,19743
0.445299,-0.483861,-3.10595,59.125,-71.625,123.625,0.377441,0.975098,1.65137,74,3,-76,-38,6,12,-38,13,19761
0.452121,-0.521151,-3.07606,58.375,-72,119.125,0.289063,0.850098,1.38867,-57,49,82,80,57,58,-7,-37,19778
0.454816,-0.553982,-3.04908,45.5625,-64.1875,106.375,0.111328,0.691895,1.11572,-48,22,46,37,23,31,-5,-36,19795
0.454816,-0.553982,-3.04908,45.5625,-64.1875,106.375,0.111328,0.691895,1.11572,-20,-24,16,22,7,4,6,-17,19812
0.4541,-0.570957,-3.02478,29.9375,-53.9375,95.625,-0.0454102,0.533691,0.886719,0,-14,11,21,3,2,63,8,19829
0.451373,-0.584565,-3.00203,26.125,-47.9375,85.25,-0.206055,0.365723,0.666992,-6,-7,-1,2,-1,-3,-16,-13,19846
0.44969,-0.59514,-2.98224,28.4375,-42.625,71.5625,-0.318848,0.209961,0.491699,-3,-5,-10,-17,-14,-6,20,6,19864
0.447994,-0.603212,-2.9654,27.1875,-36.9375,58.3125,-0.43457,0.0507813,0.295898,-7,1,-1,-4,6,-3,-32,2,19881
0.445143,-0.606644,-2.95319,20.0625,-29.6875,39.25,-0.479004,-0.0571289,0.226563,22,1,-12,-31,6,-5,12,0,19897
0.445143,-0.606644,-2.95319,20.0625,-29.6875,39.25,-0.479004,-0.0571289,0.226563,-5,-5,-3,-5,-2,-1,-26,-4,19914
0.440028,-0.603828,-2.94544,7.875,-17.625,21.125,-0.469727,-0.0854492,0.218262,-24,0,0,-1,-6,-3,6,-1,19932
0.437114,-0.593094,-2.9457,1,-6.6875,-4.875,-0.48291,-0.0761719,0.253418,-20,8,13,25,-2,-2,21,-1,19949
0.464247,-0.474085,-3.02585,-6.5,45.6875,-108.313,-0.350098,0.283691,0.640137,-12,-16,-20,-8,-5,-2,3,0,20013
0.464247,-0.474085,-3.02585,-6.5,45.6875,-108.313,-0.350098,0.283691,0.640137,9,-42,-16,-10,7,4,-5,4,20031
0.473697,-0.432301,-3.06119,-19.75,53.75,-128.125,-0.266113,0.749512,1.12158,-34,-16,19,2,12,21,9,-20,20048
0.475751,-0.38945,-3.09983,-43.3125,53.75,-139.5,0.00195313,1.06104,1.42432,37,53,57,38,10,0,41,-5,20065
0.466835,-0.341745,-3.14036,-71.9375,67.875,-154.313,0.398438,1.23975,1.81592,37,53,57,38,10,0,41,-5,20082
0.466835,-0.341745,-3.14036,-71.9375,67.875,-154.313,0.398438,1.23975,1.81592,37,53,57,38,10,0,41,-5,20099
0.466835,-0.341745,-3.14036,-71.9375,67.875,-154.313,0.398438,1.23975,1.81592,42,21,10,-5,-10,-10,-13,5,20117
0.441146,-0.296034,3.10789,-105,75.875,-142.75,0.733887,1.46875,1.92334,-96,18,-54,-34,-19,-26,-5,-2,20134
0.441146,-0.296034,3.10789,-105,75.875,-142.75,0.733887,1.46875,1.92334,14,-64,-32,-2,11,-19,8,42,20152
0.373826,-0.206231,3.03429,-129.938,80.875,-145.875,0.961914,1.3667,1.77686,-47,-113,51,46,27,48,-25,-41,20169
0.30332,-0.124346,2.9601,-116.563,85.125,-135.875,0.765625,1.11279,1.36475,15,38,127,127,99,127,-17,-102,20186
0.279421,-0.0920707,2.93102,-89.25,75.3125,-107.875,0.724609,0.993164,0.953125,37,124,120,116,82,109,7,-85,20203
0.270793,-0.0752991,2.90651,-70.9375,67.0625,-87.9375,0.630371,0.78125,0.630371,-1,98,-11,-31,-22,-62,35,21,20220
0.263242,-0.0626097,2.88904,-57.6875,54.9375,-64.5625,0.51416,0.590332,0.388184,40,80,-47,-57,-36,-51,21,41,20237
0.256501,-0.05473,2.87802,-45.5625,43.9375,-42.9375,0.462402,0.425781,0.213867,-5,16,-75,-79,-44,-64,-9,40,20254
0.251628,-0.0504959,2.87081,-33.125,32.75,-28.75,0.395508,0.282715,0.0473633,-35,-68,-80,-54,-25,-38,-11,29,20272
0.253528,-0.0675548,2.87309,-5.0625,6.625,11.125,0.459473,0.0737305,-0.249512,3,-3,5,-2,-7,4,-7,-11,20346
0.253938,-0.0814407,2.88031,-5.4375,-0.375,22.1875,0.474121,0.0512695,-0.271484,17,1,1,-15,-7,-3,-10,3,20362
0.253779,-0.0990844,2.88926,-7.4375,-8.5625,29.3125,0.498047,0.0878906,-0.20752,-24,-1,-3,-9,24,1,11,0,20379
0.25477,-0.122677,2.90128,-5.1875,-21.625,42.4375,0.517578,0.141113,-0.114258,5,-1,2,-2,0,-2,9,-6,20396
0.25477,-0.122677,2.90128,-5.1875,-21.625,42.4375,0.517578,0.141113,-0.114258,-5,9,0,3,7,4,8,-3,20413
0.255397,-0.153408,2.91751,-0.5625,-36.375,58,0.567871,0.125,-0.0126953,-28,-6,-25,-12,-4,-6,39,5,20430
0.257878,-0.190127,2.93736,1.875,-49.25,73.5625,0.634277,0.29248,0.274414,19,26,10,5,-5,-15,-23,3,20447
0.27488,-0.235782,2.96206,31.3125,-71.6875,98.4375,0.74707,0.69043,0.741699,-29,-53,5,-3,7,-4,-12,-1,20464
0.27488,-0.235782,2.96206,31.3125,-71.6875,98.4375,0.74707,0.69043,0.741699,-8,-37,-84,-36,-18,-23,4,17,20480
0.318859,-0.339759,3.02789,89.6875,-114.813,132.5,0.949219,0.931152,1.49316,-44,-37,-45,13,-44,-51,-60,15,20497
0.352219,-0.394729,3.06226,124.875,-116.625,140.563,0.890625,1.01953,1.72314,127,93,127,124,127,127,1,-102,20514
0.352219,-0.394729,3.06226,124.875,-116.625,140.563,0.890625,1.01953,1.72314,-122,-51,35,11,5,-17,28,-78,20531
0.38796,-0.449464,3.09584,135.375,-114.75,141.75,0.943359,1.16846,1.77441,16,33,-104,-115,-107,-124,-13,56,20548
0.411927,-0.499172,3.12867,107.5,-101.875,136.313,0.847168,1.07422,1.80225,30,-3,-104,-124,-52,-35,71,63,20565
0.426959,-0.542333,-3.12625,81.9375,-90,117.563,0.767578,0.905762,1.76611,21,-5,-31,-12,2,-22,-22,38,20583
0.441233,-0.569666,-3.10473,68.5625,-81.375,99.0625,0.580078,0.876465,1.646,-41,-16,-45,-95,10,2,4,17,20599
0.470532,-0.62682,-3.04364,53.0625,-63.125,87.75,-0.0375977,0.485352,0.969727,44,-15,-2,14,-7,-14,26,14,20674
0.472815,-0.643684,-3.02021,50.8125,-59.8125,87.25,-0.164063,0.321289,0.788086,33,-25,-7,11,-19,-17,-11,-7,20692
0.474113,-0.660329,-2.99625,53.8125,-55.75,82.875,-0.228027,0.164551,0.634766,11,-3,-14,-18,-9,-14,5,1,20707
0.474113,-0.660329,-2.99625,53.8125,-55.75,82.875,-0.228027,0.164551,0.634766,-4,35,-10,-4,-7,-4,-5,-4,20725
0.464955,-0.686143,-2.94407,39.5625,-38.875,75.25,-0.399902,-0.0102539,0.362793,3,11,4,-8,-24,-9,18,2,20742
0.454495,-0.691777,-2.92424,17.4375,-29.1875,52.625,-0.425781,-0.0795898,0.312988,-16,-4,2,34,13,8,48,-2,20759
0.454495,-0.691777,-2.92424,17.4375,-29.1875,52.625,-0.425781,-0.0795898,0.312988,-11,9,2,8,7,6,6,10,20776
0.440798,-0.689025,-2.91221,-1.9375,-15.375,22.9375,-0.454102,-0.186523,0.291016,-20,-12,4,-17,6,1,-14,-4,20794
0.430379,-0.674872,-2.90847,-8.9375,7.5625,-7.4375,-0.423828,-0.166504,0.272461,-45,8,16,-8,7,0,-17,-3,20811
0.426617,-0.647331,-2.91706,-19.1875,30.25,-40.875,-0.442871,-0.012207,0.277344,-11,-8,-11,-10,-4,-3,-74,-20,20828
0.421973,-0.609296,-2.93376,-36.5,46.6875,-67.375,-0.465332,0.0463867,0.322754,2,11,-2,12,16,-2,-27,7,20845
0.42038,-0.564138,-2.95858,-39.875,52.625,-91.5625,-0.428223,0.135742,0.5,15,-7,-9,59,-42,-12,-60,11,20862
0.426115,-0.524706,-2.99183,-34.5,57.125,-114.313,-0.3125,0.526855,0.937988,-1,-51,18,-36,-57,-19,-35,-16,20879
0.432488,-0.485574,-3.0291,-38.75,51.5625,-123,-0.0283203,1.00977,1.38916,-1,-35,11,-2,-5,0,-32,-2,20897
0.435206,-0.444118,-3.06473,-44.8125,65.1875,-127.313,0.553711,1.22217,1.64014,-23,-44,31,44,0,5,-67,-12,20914
0.418864,-0.392948,-3.09931,-87.0625,96,-143,1.06348,1.49023,1.73682,-24,45,-18,14,5,8,43,-16,20932
0.385226,-0.271587,3.08631,-99.625,115.375,-191.125,0.793945,1.38281,1.79443,-46,-67,-73,-72,-47,-58,36,50,20998
0.363332,-0.212957,3.04056,-94.125,109.938,-180.125,0.833984,1.51367,1.76709,-34,-93,-4,4,5,4,7,9,21016
0.31199,-0.128422,2.97031,-95.9375,84.625,-125.5,0.773926,0.937012,1.14551,5,17,53,34,20,46,45,-23,21033
0.31199,-0.128422,2.97031,-95.9375,84.625,-125.5,0.773926,0.937012,1.14551,15,37,56,37,19,39,19,-17,21050
0.295075,-0.0951905,2.93842,-65.0625,73.8125,-117.438,0.672363,0.627441,0.749512,39,73,31,9,13,22,-16,-24,21067
0.281762,-0.0665259,2.90867,-52.25,63.8125,-107,0.593262,0.61084,0.534668,2,35,-7,-18,-6,-15,-20,-4,21083
0.281762,-0.0665259,2.90867,-52.25,63.8125,-107,0.593262,0.61084,0.534668,3,22,-19,-41,-10,-8,32,5,21102
0.273716,-0.0547892,2.88482,-53.25,49.8125,-83.5625,0.553711,0.479492,0.310059,-12,0,-2,7,14,13,10,0,21119
0.263137,-0.0498523,2.86709,-50.75,33.8125,-61.25,0.512695,0.313477,0.161133,16,-24,-36,-49,-18,-23,-22,17,21137
0.255849,-0.0510246,2.85269,-33.75,15.8125,-46.375,0.446289,0.164063,-0.00244141,46,-25,-18,-38,-31,-12,55,19,21154
0.25301,-0.0736416,2.83266,-9.0625,-11.375,-20.25,0.495117,0.0727539,-0.210449,-18,-9,-2,-4,6,1,13,-8,21172
0.25301,-0.0736416,2.83266,-9.0625,-11.375,-20.25,0.495117,0.0727539,-0.210449,-40,-24,-2,52,28,1,-44,-4,21188
0.252621,-0.0896403,2.82828,-11.375,-7.9375,-10.0625,0.575195,0.0683594,-0.276367,-13,5,-1,-27,-3,-3,-1,-4,21205
0.253965,-0.106415,2.82721,-8.8125,-7.1875,-0.5,0.582031,0.118652,-0.258789,23,1,-16,-39,-1,4,47,18,21222
0.257007,-0.125909,2.83103,-2.0625,-11.8125,15.875,0.570313,0.123535,-0.229004,24,14,9,-31,-4,-1,13,11,21239
0.264449,-0.148759,2.83973,12.9375,-16.625,31.625,0.592285,0.132813,-0.160645,-17,-8,-4,-11,-10,-1,13,-4,21256
0.319315,-0.246994,2.91327,78.1875,-71.9375,132.125,0.660156,0.913086,1,8,-5,-25,-15,-15,-28,-35,5,21314
0.350224,-0.302186,2.95857,114.813,-102.313,170.688,0.87207,1.07422,1.45361,-13,21,-78,-1,-19,6,-61,-7,21331
0.350224,-0.302186,2.95857,114.813,-102.313,170.688,0.87207,1.07422,1.45361,122,21,127,110,108,127,33,-37,21348
0.385132,-0.362006,3.00737,140.938,-105.625,184,1.18457,1.00879,1.76416,41,-17,108,94,104,127,17,-54,21365
0.418592,-0.410966,3.04997,141.813,-84.9375,158.938,1.27197,1.14941,1.85645,-128,-78,-109,-92,-92,-122,82,9,21382
0.441534,-0.44774,3.08705,107.375,-56.8125,133.563,0.928711,1.08545,1.88477,8,-34,-124,-97,-128,-128,9,104,21400
0.448355,-0.477696,3.12064,60.625,-45,118,0.741211,1.0083,1.83984,63,-21,-126,-128,-117,-112,47,127,21417
0.453201,-0.497378,-3.13576,54.5625,-53.625,98.0625,0.458496,0.75,1.69824,100,24,-58,-63,-8,-14,-21,49,21434
0.453201,-0.497378,-3.13576,54.5625,-53.625,98.0625,0.458496,0.75,1.69824,20,38,51,30,54,68,-26,-36,21452
0.464403,-0.516403,-3.11545,61.4375,-61.5,86.8125,0.290527,0.721191,1.45947,-82,25,57,45,20,26,-12,-40,21469
0.474687,-0.534287,-3.09713,51.6875,-59.5625,83.5625,0.163574,0.689453,1.1875,-28,19,37,88,18,24,35,-21,21486
0.477119,-0.550365,-3.0791,31.125,-55.375,79.875,0.00537109,0.539063,0.947266,-5,43,18,-16,15,37,-20,3,21504
0.477119,-0.550365,-3.0791,31.125,-55.375,79.875,0.00537109,0.539063,0.947266,-18,-30,-11,-11,-7,-19,34,7,21521
0.474069,-0.564872,-3.06118,19.0625,-51.5,74.875,-0.150391,0.354492,0.712402,-18,-30,-11,-11,-7,-19,34,7,21539
0.471575,-0.577672,-3.04659,18.75,-48.3125,62,-0.227051,0.211426,0.523438,47,-23,-1,-4,-2,-7,-68,-5,21555
0.467926,-0.58697,-3.03381,14.4375,-39.875,50.875,-0.316406,0.0908203,0.354492,-16,7,8,5,-2,-3,25,2,21572
0.447169,-0.591727,-3.00297,-2.3125,-16.875,18.875,-0.546875,-0.137207,0.111816,6,-3,-4,-7,-4,0,19,2,21636
0.44339,-0.584592,-3.00173,1.5625,-12.1875,1.125,-0.529785,-0.147461,0.125977,70,-8,-9,-5,-20,-7,38,27,21653
0.443043,-0.569479,-3.00641,0,6.5625,-21.1875,-0.414551,-0.0791016,0.166016,-25,-10,-21,-23,-5,2,29,-10,21670
0.443043,-0.569479,-3.00641,0,6.5625,-21.1875,-0.414551,-0.0791016,0.166016,20,-14,-5,24,-9,1,5,12,21689
0.450432,-0.504158,-3.03567,-10.875,36.8125,-68.9375,-0.443359,0.231445,0.487793,-3,-37,-43,-3,1,-11,-6,-30,21706
0.465564,-0.45808,-3.06137,2.75,38.0625,-88,-0.364258,0.60498,0.993164,-18,-26,-9,-29,18,7,-7,-17,21724
0.486957,-0.411451,-3.09245,3.4375,33,-97.25,-0.136719,1.104,1.44189,98,33,26,-70,7,7,-24,5,21742
0.487754,-0.374882,-3.12177,-35.625,54.8125,-114.5,0.628906,1.26465,1.64111,9,1,39,-36,0,18,-20,-25,21758
0.471899,-0.322545,3.12825,-77.875,92,-148.5,0.918457,1.52246,1.85352,-35,36,7,43,19,8,-21,-1,21775
0.471899,-0.322545,3.12825,-77.875,92,-148.5,0.918457,1.52246,1.85352,37,78,31,-10,-19,-18,14,-32,21792
0.450782,-0.263035,3.0884,-93.625,103.688,-173.875,0.73877,1.52734,1.86426,37,78,31,-10,-19,-18,14,-32,21809
0.422824,-0.205322,3.05208,-104.188,107.25,-161.75,0.887207,1.55811,1.771,9,-12,-52,-52,-32,-49,21,37,21826
0.395938,-0.153916,3.01612,-105.938,104.563,-153.938,0.876465,1.33789,1.6084,-15,-78,-66,-54,-35,-33,-14,53,21844
0.374236,-0.108598,2.98569,-84.125,98.4375,-131.625,0.797852,1.17529,1.32031,-58,-90,-1,-9,-2,10,-2,1,21860
0.356426,-0.0692222,2.9599,-65.6875,89.75,-112.438,0.725098,0.891602,0.991211,-128,-21,117,91,51,77,-29,-63,21877
0.347623,-0.046845,2.93644,-56.1875,75.875,-97.75,0.617676,0.680664,0.729004,80,121,107,78,46,59,4,-46,21894
0.319016,-0.0160043,2.88837,-35.375,30.8125,-47.0625,0.467773,0.268555,0.203125,-28,-47,-48,-63,-31,-30,-24,12,21984
0.319016,-0.0160043,2.88837,-35.375,30.8125,-47.0625,0.467773,0.268555,0.203125,-52,-58,-34,-13,-31,-30,12,-1,22001
0.312862,-0.0207025,2.86962,-10.25,3.75,-27.5,0.368652,0.100586,-0.0693359,-47,-20,11,16,10,13,-6,-19,22018
0.314756,-0.0398981,2.8615,-5.8125,-2.625,-5.5625,0.415527,0.0629883,-0.188477,6,-13,2,25,8,2,-4,-7,22034
0.314756,-0.0398981,2.8615,-5.8125,-2.625,-5.5625,0.415527,0.0629883,-0.188477,7,-14,-15,-57,-3,0,-18,-8,22052
0.314014,-0.0524164,2.86262,-9.5625,-5.125,5.625,0.419434,0.0585938,-0.178223,-4,13,2,-31,-6,4,-68,-14,22069
0.316505,-0.0683878,2.86626,-3.5,-8.8125,14.1875,0.474121,0.106934,-0.185547,70,-18,-15,30,20,-5,-45,3,22086
0.319631,-0.088044,2.87314,-3.875,-9.8125,25.375,0.567871,0.199707,-0.0673828,9,20,9,-9,0,-6,21,0,22102
0.325512,-0.11035,2.88531,-1.25,-10.875,42.375,0.617188,0.379395,0.169434,31,6,-25,-17,-14,-13,73,15,22119
0.342959,-0.140944,2.90492,24.6875,-31.125,73.9375,0.617676,0.734375,0.688965,-10,0,-2,-2,-16,-20,31,18,22137
0.342959,-0.140944,2.90492,24.6875,-31.125,73.9375,0.617676,0.734375,0.688965,-76,-62,-109,-66,-29,-47,-19,13,22154
0.379083,-0.18186,2.93382,109.063,-74.5625,116.938,0.639648,0.910645,1.11328,77,76,28,78,40,65,-2,-2,22171
0.43845,-0.232094,2.96703,181.25,-88.25,141.813,0.800293,1.16895,1.32422,59,15,127,98,84,106,-44,-53,22188
0.486736,-0.283703,3.00203,156.125,-82.9375,151.813,0.9375,1.32959,1.56201,20,95,124,112,127,127,-33,-96,22205
0.512194,-0.331733,3.03508,96,-74.3125,145.375,0.894043,1.30859,1.64063,43,119,114,91,35,33,-36,-37,22221
0.520802,-0.373165,3.06858,55.25,-59.4375,138.625,0.703613,1.15088,1.68115,27,37,41,15,-12,-58,15,-55,22239
0.529609,-0.480111,-3.13943,26.6875,-57.6875,104.375,0.286133,0.798828,1.20557,-20,-22,-36,-17,3,6,19,13,22305
0.527052,-0.513025,-3.11553,25.4375,-57.6875,103.188,0.155273,0.60498,1.0293,20,-16,23,54,19,8,1,-9,22322
0.526022,-0.543986,-3.09105,32.1875,-53.5,101.125,0.0541992,0.501953,0.863281,-6,19,19,13,17,35,-102,-20,22339
0.526022,-0.543986,-3.09105,32.1875,-53.5,101.125,0.0541992,0.501953,0.863281,-32,12,31,22,7,11,32,-10,22356
0.517033,-0.590707,-3.03907,23.6875,-41.25,95.625,-0.117188,0.34375,0.594238,21,-16,4,13,7,-4,-17,-11,22372
0.517033,-0.590707,-3.03907,23.6875,-41.25,95.625,-0.117188,0.34375,0.594238,12,-8,-1,-12,3,-8,18,-2,22389
0.506417,-0.603278,-3.01326,16.1875,-32.375,84.5,-0.222168,0.18457,0.501953,44,-6,0,2,4,0,-15,-10,22405
0.49564,-0.609757,-2.99109,14.125,-22.25,64.625,-0.315918,0.0395508,0.392578,12,-17,-6,-4,-8,-10,8,-5,22421
0.486659,-0.609159,-2.97378,13.875,-10.25,42.75,-0.39502,-0.0673828,0.285645,23,7,8,31,9,8,18,3,22438
0.486659,-0.609159,-2.97378,13.875,-10.25,42.75,-0.39502,-0.0673828,0.285645,3,6,-12,-16,-6,7,19,10,22455
0.479592,-0.600655,-2.96305,7.9375,0.3125,20,-0.504395,-0.107422,0.203125,-13,5,17,13,21,-15,-14,-12,22472
0.472124,-0.58478,-2.95868,-3.125,7.6875,-0.8125,-0.605469,-0.129883,0.180176,11,12,-1,23,-4,-2,36,16,22490
0.472124,-0.58478,-2.95868,-3.125,7.6875,-0.8125,-0.605469,-0.129883,0.180176,-18,14,1,6,6,-5,5,-7,22507
0.466511,-0.531706,-2.97739,-14.9375,23.3125,-56.5,-0.553223,-0.0395508,0.263184,-1,-21,10,-3,-1,8,16,3,22524
0.468061,-0.493812,-2.99967,-20.875,31.1875,-81.75,-0.487305,0.101563,0.432129,-31,-18,-12,-22,4,-3,-30,-8,22541
0.468061,-0.493812,-2.99967,-20.875,31.1875,-81.75,-0.487305,0.101563,0.432129,-26,4,50,32,-23,1,-13,-6,22558
0.485912,-0.348402,3.13239,-74.625,65.6875,-161.438,0.744141,1.54102,1.82178,41,23,16,48,-12,-25,20,17,22631
0.469571,-0.294132,3.08371,-91.0625,77.25,-189.375,0.617188,1.51514,1.87744,29,-13,-51,-36,-14,-32,7,16,22648
0.444692,-0.238998,3.03642,-106.688,84,-187,0.669922,1.60986,1.80078,-26,-50,-39,-47,3,-17,-51,19,22665
0.414834,-0.18824,2.98985,-126.063,84.3125,-179.563,0.733398,1.51953,1.68555,-13,-26,-50,-20,-9,-23,-12,12,22682
0.385663,-0.144605,2.94855,-115,77.375,-157.063,0.689453,1.33105,1.40674,0,-61,-2,18,-17,-6,-12,-4,22700
0.363801,-0.108556,2.9123,-86,67.375,-136,0.672363,1.05273,1.0918,-55,-34,62,23,31,59,27,-31,22718
0.363801,-0.108556,2.9123,-86,67.375,-136,0.672363,1.05273,1.0918,49,75,66,32,29,28,27,-29,22735
0.348118,-0.0787901,2.87991,-62.25,56.9375,-119,0.616699,0.827148,0.769043,11,31,1,5,1,-11,-20,-11,22753
0.334662,-0.0535824,2.85263,-50.9375,51,-100.5,0.59082,0.637207,0.54834,-4,1,-20,-32,-2,-12,-11,7,22771
0.325731,-0.0415903,2.83096,-54.5625,45.375,-79.75,0.510742,0.519043,0.359863,16,3,7,42,-12,-21,78,23,22788
0.314437,-0.0333847,2.81539,-48.9375,36.6875,-58.5625,0.439941,0.303711,0.214844,-10,-21,-23,-12,-22,-13,-18,20,22806
0.308314,-0.0303337,2.80288,-30.5,25.3125,-45.4375,0.423828,0.202637,0.0673828,36,-19,-8,-15,-1,4,-48,-3,22823
0.307111,-0.0319188,2.79383,-13,18.4375,-32.9375,0.466797,0.115234,-0.0454102,-18,-9,3,-5,2,5,-8,-7,22842
0.307111,-0.0319188,2.79383,-13,18.4375,-32.9375,0.466797,0.115234,-0.0454102,-15,-5,-4,-14,7,3,22,10,22859
0.311697,-0.03977,2.78718,-3.8125,16.9375,-9.0625,0.467285,0.104492,-0.208984,-20,1,-6,-4,-10,-7,-4,2,22875
0.311697,-0.03977,2.78718,-3.8125,16.9375,-9.0625,0.467285,0.104492,-0.208984,20,8,-1,-5,5,-6,-11,1,22891
0.337116,-0.130342,2.85324,17.5,-26.125,85.3125,0.595215,0.615723,0.600586,18,-20,-32,-29,-14,-20,11,13,22989
0.355694,-0.164752,2.88612,59.625,-53.9375,119.5,0.65918,0.854492,1.08398,-53,-27,-40,-45,-29,-25,31,6,23006
0.387094,-0.209732,2.92144,100.813,-76.75,138.25,0.802246,1.06055,1.38623,-3,-34,-27,-61,-34,-49,-46,27,23023
0.419433,-0.260682,2.95991,112.688,-86.0625,154.75,0.894531,1.10107,1.66455,36,69,87,74,41,80,10,-37,23040
0.443929,-0.309406,2.9967,94.25,-80.75,150.563,0.836914,1.14795,1.69189,-2,96,117,125,127,127,17,-108,23057
0.443929,-0.309406,2.9967,94.25,-80.75,150.563,0.836914,1.14795,1.69189,-108,-61,102,78,31,0,24,-104,23074
0.454611,-0.351812,3.03097,59.5,-70.75,138,0.623535,1.06006,1.74951,-72,-34,-98,-114,-125,-128,50,20,23091
0.45918,-0.393616,3.06114,44.1875,-76.875,127.75,0.484863,0.918457,1.78369,59,-15,-128,-128,-77,-80,17,110,23108
0.469374,-0.434495,3.08468,56.25,-83.5,110.813,0.444336,0.873535,1.68652,13,-19,-82,-72,-9,-7,-16,41,23125
0.481809,-0.474152,3.10425,58.125,-85.6875,102.188,0.275391,0.912109,1.44043,13,-57,-31,-19,22,25,-11,0,23142
0.486784,-0.512158,3.12601,41.3125,-78.75,104.688,0.132324,0.786133,1.16553,-4,9,39,11,36,47,-26,-33,23160
