roll,pitch,yaw, gyro_x, gyro_y, gyro_z, accel_x, accel_y, accel_z, EMG0, EMG1, EMG2, EMG3, EMG4, EMG5, EMG6, EMG7, time
0.155439,-0.9777,-2.94246,79,-135.688,87.0625,1.00635,-0.128418,0.303711,0,0,0,0,0,0,0,0,417
0.146432,-1.03136,-2.90128,77,-137.813,79.75,0.98584,-0.32666,0.281738,0,0,0,0,0,0,0,0,434
0.146432,-1.03136,-2.90128,77,-137.813,79.75,0.98584,-0.32666,0.281738,0,0,0,0,0,0,0,0,450
0.12109,-1.14192,-2.8194,70.375,-150.063,71.25,1.23779,-0.0761719,0.258789,0,0,0,0,0,0,0,0,466
0.12109,-1.14192,-2.8194,70.375,-150.063,71.25,1.23779,-0.0761719,0.258789,0,0,0,0,0,0,0,0,483
0.0968082,-1.19576,-2.77106,56.875,-143.625,72.875,1.77734,0.209961,0.485352,0,0,0,0,0,0,0,0,500
0.0393357,-1.24734,-2.69881,28.5,-146.188,84,1.69189,0.230957,0.769043,0,0,0,0,0,0,0,0,517
-0.0648816,-1.30049,-2.58295,19.875,-152.125,93.6875,0.508301,-0.110352,0.0898438,0,0,0,0,0,0,0,0,534
-0.219187,-1.34894,-2.41682,18.875,-155.688,97.4375,1.58154,0.0737305,0.464355,0,0,0,0,0,0,0,0,551
-0.219187,-1.34894,-2.41682,18.875,-155.688,97.4375,1.58154,0.0737305,0.464355,0,0,0,0,0,0,0,0,568
-0.219187,-1.34894,-2.41682,18.875,-155.688,97.4375,1.58154,0.0737305,0.464355,0,0,0,0,0,0,0,0,584
-0.748094,-1.41502,-1.8539,39.875,-150.063,85.625,1.43262,-0.059082,0.581055,-5,-5,-7,-5,-1,-1,-2,-1,602
-0.748094,-1.41502,-1.8539,39.875,-150.063,85.625,1.43262,-0.059082,0.581055,-1,-2,-1,-1,-1,-1,12,-2,618
-1.11262,-1.42263,-1.46496,58.125,-141.563,78.125,0.223145,-0.302246,-0.344727,0,-3,0,-1,0,-2,-8,-4,636
-1.38782,-1.41185,-1.16697,53.75,-125.25,71.8125,1.34033,-0.103027,0.690918,-4,-2,0,0,-1,-3,0,0,653
-1.38782,-1.41185,-1.16697,53.75,-125.25,71.8125,1.34033,-0.103027,0.690918,0,-4,-4,-3,-2,-2,0,0,669
-1.87003,-1.3485,-0.643923,12.125,-86.0625,43.25,0.812988,-0.195801,0.12793,0,-3,1,5,-2,1,0,1,720
-1.93111,-1.33265,-0.572723,20.125,-73.6875,30.875,0.868652,-0.151367,0.146973,1,-3,-3,-2,-1,-1,10,-3,737
-1.93111,-1.33265,-0.572723,20.125,-73.6875,30.875,0.868652,-0.151367,0.146973,-2,-1,1,-2,0,2,-1,-1,755
-1.97415,-1.3237,-0.519062,22.5625,-64.4375,18.625,0.904297,-0.0820313,0.205566,-2,-3,-4,-2,-2,-3,-3,1,772
-2.00302,-1.31913,-0.485974,4.625,-50.5,9.5625,0.907227,-0.114258,0.253418,0,-1,-1,0,-2,1,-4,-4,789
-2.01624,-1.31838,-0.470602,-2.25,-37.625,0.3125,0.920898,-0.154785,0.295898,0,0,4,-1,1,2,5,-3,806
-2.01849,-1.32279,-0.466732,-0.8125,-27.6875,-6.75,0.959473,-0.14502,0.336914,0,2,5,4,1,2,-7,-2,823
-2.01545,-1.33069,-0.467835,-0.0625,-19.1875,-12.5625,1.07617,-0.129395,0.315918,0,4,4,5,1,0,-4,-3,839
-2.00732,-1.34121,-0.475832,-5.25,-9.6875,-18.375,1.18652,-0.145508,0.285156,0,2,-2,-3,-3,-2,6,2,855
-2.00732,-1.34121,-0.475832,-5.25,-9.6875,-18.375,1.18652,-0.145508,0.285156,-2,-1,-5,-2,-1,-2,2,-1,872
-1.98236,-1.35546,-0.500289,-0.625,1.75,-22.0625,1.28662,-0.148926,0.304199,-9,-3,-3,-3,-2,-3,5,0,889
-1.92607,-1.39312,-0.566864,-24.3125,17.5,-24.5,1.50098,0.0200195,0.188477,1,-4,-1,-1,-1,1,1,-1,906
-1.92607,-1.39312,-0.566864,-24.3125,17.5,-24.5,1.50098,0.0200195,0.188477,1,0,16,5,4,0,2,4,923
-1.86492,-1.4082,-0.643476,-43.75,41.1875,-30.5625,1.47266,-0.23877,0.046875,-3,-4,-10,-7,-9,-2,-8,-2,940
-1.86492,-1.4082,-0.643476,-43.75,41.1875,-30.5625,1.47266,-0.23877,0.046875,1,-4,2,10,2,2,6,-4,957
-1.7461,-1.42561,-0.774108,-29.4375,65.8125,-42.9375,1.38086,-0.314453,-0.0141602,-3,-4,-6,-7,-2,-5,-5,1,973
-0.733689,-1.45851,-1.85722,-86.5,134.688,-76.3125,1.34424,-0.034668,0.00585938,4,-20,-6,-10,-1,-3,-22,-10,1033
-0.372129,-1.42762,-2.25408,-93.75,152.313,-76.8125,1.50488,-0.0263672,0.0297852,3,-3,-4,-2,-1,3,30,-4,1050
-0.162874,-1.37953,-2.49076,-69.125,167.25,-74.0625,1.61035,-0.117676,0.00634766,-2,-11,-2,3,-1,-3,-3,0,1067
-0.0178502,-1.3196,-2.64261,-8.875,185.563,-82.5,1.39893,-0.157227,-0.0449219,3,2,-11,-7,1,-2,-10,0,1084
0.095864,-1.25247,-2.75194,24.75,194.875,-96.4375,1.12891,-0.0253906,-0.0390625,3,-8,4,2,0,-1,-6,-4,1101
0.178384,-1.18104,-2.83351,16.3125,197.375,-107.313,0.888184,0.126465,-0.0107422,-2,-4,1,1,-1,-4,-8,-1,1118
0.178384,-1.18104,-2.83351,16.3125,197.375,-107.313,0.888184,0.126465,-0.0107422,1,-8,-3,-2,-3,-4,-22,-5,1136
0.229983,-1.10668,-2.89479,-13.125,198.375,-113.25,0.711426,0.17041,0.0292969,-6,5,1,-1,-6,-5,2,-5,1153
0.255599,-1.03058,-2.94269,-47.8125,199.25,-115.938,0.547363,0.115234,0.110352,-12,-6,-1,2,0,-3,0,1,1170
0.267452,-0.954831,-2.98217,-61.1875,195.063,-116.063,0.428223,0.081543,0.197266,-12,-6,-1,2,0,-3,0,1,1187
0.267452,-0.954831,-2.98217,-61.1875,195.063,-116.063,0.428223,0.081543,0.197266,-4,-3,-1,-2,-3,-4,-6,-4,1204
0.274295,-0.881931,-3.01521,-55.625,186.438,-111.313,0.404297,0.0927734,0.269043,-7,0,7,-3,0,1,9,1,1221
0.280916,-0.813467,-3.04118,-37,175.875,-101.188,0.435059,0.109863,0.308105,-6,-2,-7,-4,14,2,-2,-8,1238
0.280916,-0.813467,-3.04118,-37,175.875,-101.188,0.435059,0.109863,0.308105,-2,-10,-9,-7,-8,-6,-2,-2,1255
0.299403,-0.690019,-3.0819,-6.6875,158.313,-87.25,0.42041,0.161133,0.359375,0,-3,-1,0,1,-3,3,2,1272
0.307402,-0.633825,-3.09627,-5.625,145.875,-77.3125,0.442871,0.375488,0.387207,1,0,-6,-5,-18,-4,-4,1,1289
0.280735,-0.541728,-3.1127,-72.875,115,-46.5625,0.53418,0.425781,0.578125,1,-2,8,1,23,-7,0,-7,1348
0.256755,-0.512267,-3.11288,-74.0625,92.0625,-22.5,0.593262,0.275391,0.708008,1,-5,-3,1,-7,4,10,2,1365
0.24362,-0.483568,-3.10125,2.5625,56.3125,0.6875,0.790527,0.270996,0.74707,-2,-3,-7,-6,3,-4,-9,-2,1382
0.24362,-0.483568,-3.10125,2.5625,56.3125,0.6875,0.790527,0.270996,0.74707,-2,0,-3,-2,2,-1,0,-1,1399
0.251724,-0.48007,-3.09926,17.5,33.4375,1.375,0.766602,0.331543,0.738281,-3,-8,-4,-9,-19,-12,-11,-3,1416
0.251724,-0.48007,-3.09926,17.5,33.4375,1.375,0.766602,0.331543,0.738281,2,3,7,7,-4,2,13,-2,1434
0.26069,-0.495158,-3.08058,7.375,-3.8125,38.625,0.768066,0.404297,0.776855,1,-2,4,8,-3,0,10,2,1451
0.257802,-0.517097,-3.06481,11,-35.6875,51.6875,0.707031,0.238281,0.766602,-6,-2,1,9,-7,-6,2,-4,1468
0.257802,-0.517097,-3.06481,11,-35.6875,51.6875,0.707031,0.238281,0.766602,0,-2,-3,-4,-7,-5,-3,1,1485
0.27642,-0.589682,-3.03451,80.4375,-76.875,41.5625,0.78418,-0.102539,0.576172,0,0,0,-3,0,1,-5,-3,1503
0.27642,-0.589682,-3.03451,80.4375,-76.875,41.5625,0.78418,-0.102539,0.576172,-1,2,-7,0,2,-1,-6,-3,1520
0.298094,-0.624027,-3.03256,69.25,-76.375,24.3125,0.747559,0.103516,0.583008,1,6,17,16,1,0,-4,-3,1536
0.298094,-0.624027,-3.03256,69.25,-76.375,24.3125,0.747559,0.103516,0.583008,2,1,30,2,1,0,-3,-2,1553
0.298094,-0.624027,-3.03256,69.25,-76.375,24.3125,0.747559,0.103516,0.583008,-5,3,-2,5,6,6,-3,-4,1571
0.298094,-0.624027,-3.03256,69.25,-76.375,24.3125,0.747559,0.103516,0.583008,-7,0,-1,2,-1,1,-2,-4,1588
0.292626,-0.73988,-3.00526,-1.9375,-97.875,62.4375,0.839844,0.152832,0.702637,0,-5,-6,-9,-3,-3,0,3,1605
0.298019,-0.881797,-2.97866,39.375,-138.375,56.0625,0.480957,0.120605,0.498047,2,-5,-28,-7,-5,-20,0,2,1663
0.295713,-0.991898,-2.9542,21.75,-149,71.0625,0.423828,0.0307617,0.408203,1,0,-5,12,9,8,-3,-1,1680
0.295713,-0.991898,-2.9542,21.75,-149,71.0625,0.423828,0.0307617,0.408203,-1,3,3,1,-2,-2,-2,-3,1697
0.281647,-1.04726,-2.93376,10.4375,-145.25,73.375,0.406738,-0.0112305,0.392578,0,0,-6,15,-14,9,-1,-4,1714
0.281647,-1.04726,-2.93376,10.4375,-145.25,73.375,0.406738,-0.0112305,0.392578,-2,1,12,-5,1,0,-1,-1,1731
0.252619,-1.16337,-2.89121,11.8125,-159,71.0625,0.436035,0.101563,0.394043,-1,-5,-24,-15,-7,-2,-5,-2,1749
0.252619,-1.16337,-2.89121,11.8125,-159,71.0625,0.436035,0.101563,0.394043,-3,-7,-28,-3,-5,-1,-4,0,1767
0.224996,-1.22258,-2.85989,4.5,-160.188,72.6875,0.538574,0.0795898,0.373535,0,0,-3,-3,-3,0,1,-1,1785
0.145214,-1.32686,-2.76659,23.75,-137.5,58.5625,0.731934,-0.108887,0.419434,3,6,-2,12,4,2,-2,-1,1802
0.145214,-1.32686,-2.76659,23.75,-137.5,58.5625,0.731934,-0.108887,0.419434,-1,0,6,0,-11,1,1,-3,1819
0.104971,-1.36926,-2.71547,27.625,-120.375,48.625,0.858887,0.0986328,0.42334,0,-2,6,8,4,5,0,-1,1836
0.104971,-1.36926,-2.71547,27.625,-120.375,48.625,0.858887,0.0986328,0.42334,-2,-1,-7,-1,4,2,-2,-1,1853
-0.0785945,-1.43013,-2.53443,-21.25,-93.5,51.3125,0.842773,0.0639648,0.44043,0,7,19,8,3,-2,-3,-4,1870
-0.241712,-1.44833,-2.37977,-27.75,-86.1875,49.125,0.916992,-0.0327148,0.479492,-1,-3,35,-11,-3,2,-1,-4,1886
-0.241712,-1.44833,-2.37977,-27.75,-86.1875,49.125,0.916992,-0.0327148,0.479492,-2,2,18,7,-2,-3,-21,-7,1903
-0.604063,-1.47055,-2.02399,2.5,-74.5,29.4375,1.23047,-0.0639648,0.38916,-1,-1,-10,-13,-2,-6,-5,-1,1921
-0.729551,-1.48032,-1.88964,25.5,-65.0625,28.5625,1.42969,0.12793,0.407715,-1,-1,-18,0,-6,-3,-2,-1,1978
-0.977753,-1.48988,-1.63675,-3.9375,-39.6875,18.625,1.57129,-0.0595703,0.235352,3,-1,-8,-2,1,7,1,-3,1994
-1.04778,-1.48716,-1.56704,-1.1875,-17.1875,4.5,1.49707,-0.27002,0.165527,1,2,-2,-18,1,7,27,-3,2011
-1.04778,-1.48716,-1.56704,-1.1875,-17.1875,4.5,1.49707,-0.27002,0.165527,4,8,-5,-3,-2,-4,-17,0,2028
-0.796884,-1.49032,-1.82085,-23.3125,29.125,-25.4375,1.37695,0.0634766,0.169922,6,8,5,2,-1,-4,-11,-1,2046
-0.542979,-1.48437,-2.10415,-86.5625,49.125,-33.875,1.37012,0.0844727,0.172852,-4,-5,-27,-12,-2,-4,-9,-2,2064
-0.542979,-1.48437,-2.10415,-86.5625,49.125,-33.875,1.37012,0.0844727,0.172852,-5,14,-7,0,9,2,15,-1,2082
-0.351919,-1.47075,-2.33741,-115.625,63.9375,-38.1875,1.42627,-0.0253906,0.168945,2,1,13,-14,0,-2,22,2,2099
-0.351919,-1.47075,-2.33741,-115.625,63.9375,-38.1875,1.42627,-0.0253906,0.168945,-3,-7,-18,-7,-8,-5,-13,-1,2116
-0.0858979,-1.42515,-2.67473,-87.25,87.125,-46.8125,1.49756,0,0.0175781,-5,-11,-16,-12,0,-1,3,-1,2133
0.0197172,-1.39215,-2.80448,-64.625,101.313,-54.3125,1.37598,0.15918,0.00585938,3,-3,8,17,6,3,4,2,2150
0.0197172,-1.39215,-2.80448,-64.625,101.313,-54.3125,1.37598,0.15918,0.00585938,-2,26,-40,-1,-7,-7,-16,-5,2168
0.0197172,-1.39215,-2.80448,-64.625,101.313,-54.3125,1.37598,0.15918,0.00585938,9,31,15,29,5,1,-3,-4,2185
0.149001,-1.297,-2.99704,-84.75,141.813,-79.3125,1.0459,-0.0170898,0.10498,-2,-8,-10,7,-1,2,1,-2,2201
0.149001,-1.297,-2.99704,-84.75,141.813,-79.3125,1.0459,-0.0170898,0.10498,0,7,-2,24,1,0,-24,3,2219
0.149001,-1.297,-2.99704,-84.75,141.813,-79.3125,1.0459,-0.0170898,0.10498,0,-4,-4,6,6,8,6,0,2237
0.303208,-0.806615,2.95027,-75.9375,180.938,-103.188,0.38623,0.203125,0.297363,-4,-2,-13,-9,-4,0,-3,0,2326
0.303208,-0.806615,2.95027,-75.9375,180.938,-103.188,0.38623,0.203125,0.297363,-27,-3,-5,-5,0,2,-4,-8,2343
0.303208,-0.806615,2.95027,-75.9375,180.938,-103.188,0.38623,0.203125,0.297363,29,9,12,4,-9,-6,9,9,2360
0.278995,-0.670479,2.90816,-79.8125,170.25,-96.125,0.29248,0.280762,0.422852,7,1,26,12,-4,-4,-6,-3,2378
0.263903,-0.610995,2.89291,-74.5,155.063,-75.6875,0.359375,0.494141,0.496582,37,-7,1,9,-2,-3,-4,5,2394
0.263903,-0.610995,2.89291,-74.5,155.063,-75.6875,0.359375,0.494141,0.496582,-19,-4,22,16,3,2,-6,-9,2411
0.215526,-0.52141,2.90034,-65.625,120.375,-6.3125,0.723633,0.387695,0.568848,-13,5,-3,-6,2,1,-2,0,2428
0.196464,-0.487959,2.90872,-45.25,104.625,0.75,0.72998,0.25,0.565918,17,0,-1,9,-4,1,1,3,2445
0.196464,-0.487959,2.90872,-45.25,104.625,0.75,0.72998,0.25,0.565918,-4,-7,-4,-3,-8,-6,3,2,2462
0.196464,-0.487959,2.90872,-45.25,104.625,0.75,0.72998,0.25,0.565918,-3,-4,-18,9,4,-2,-6,-4,2480
0.199881,-0.457511,2.92653,22.9375,58.8125,19.9375,0.708008,0.316406,0.566406,11,-1,-3,4,0,-1,13,-1,2497
0.208055,-0.458177,2.93896,17,32.8125,36.9375,0.782715,0.492676,0.635254,-1,-2,4,-10,0,-3,3,1,2515
0.208055,-0.458177,2.93896,17,32.8125,36.9375,0.782715,0.492676,0.635254,-19,0,13,-5,-5,-2,4,-5,2531
0.208055,-0.458177,2.93896,17,32.8125,36.9375,0.782715,0.492676,0.635254,11,-15,-4,-2,-6,-1,5,6,2548
0.231572,-0.536059,2.99609,83.0625,-48.4375,43.5,0.958496,-0.0961914,0.561035,2,-5,-3,4,4,4,-5,-1,2565
0.231572,-0.536059,2.99609,83.0625,-48.4375,43.5,0.958496,-0.0961914,0.561035,-6,0,-15,-16,-5,-4,-7,-3,2582
0.294825,-0.630456,3.00559,43.875,-84.1875,33.5625,0.804199,0.325195,0.752441,1,0,-1,14,1,1,1,0,2658
0.321086,-0.719956,3.01819,62.5,-124.438,54.3125,0.847656,0.209473,0.808105,-5,-15,-11,-4,-4,-1,-13,0,2675
0.346786,-0.765601,3.01976,78.125,-122.25,44.375,0.802734,0.169434,0.783203,-2,-5,-11,-7,-8,-5,-17,4,2692
0.346786,-0.765601,3.01976,78.125,-122.25,44.375,0.802734,0.169434,0.783203,0,1,-36,-6,-1,-4,-7,-1,2710
0.414323,-0.838574,3.00259,80.3125,-102.625,19.6875,0.550781,0.226074,0.710938,9,5,12,-1,-3,0,14,0,2727
0.442615,-0.865753,2.99712,71.75,-89,26,0.470215,0.230957,0.625488,4,-3,6,15,4,0,-22,-7,2744
0.442615,-0.865753,2.99712,71.75,-89,26,0.470215,0.230957,0.625488,4,4,26,12,-1,5,7,0,2761
0.442615,-0.865753,2.99712,71.75,-89,26,0.470215,0.230957,0.625488,3,4,-9,-15,-4,-5,-6,1,2778
0.463459,-0.905921,3.00694,44.3125,-58.25,38.125,0.342773,0.164551,0.591309,0,-4,1,-5,-2,-2,-7,0,2795
0.466394,-0.915491,3.02169,47.6875,-35.625,37.5,0.324707,0.154785,0.629883,9,5,8,1,-8,-3,-19,-1,2812
0.466394,-0.915491,3.02169,47.6875,-35.625,37.5,0.324707,0.154785,0.629883,-10,-12,9,-16,-1,0,-19,0,2828
0.478487,-0.913351,3.05491,70.4375,-6.1875,24.75,0.158691,0.118164,0.65625,-14,2,-1,11,3,-4,0,-2,2847
0.478487,-0.913351,3.05491,70.4375,-6.1875,24.75,0.158691,0.118164,0.65625,-6,-4,-7,-7,3,2,15,-2,2864
0.486477,-0.903739,3.07398,73.0625,9.75,22.1875,0.115234,0.147461,0.634766,8,7,-2,0,0,-3,-4,3,2882
0.486477,-0.903739,3.07398,73.0625,9.75,22.1875,0.115234,0.147461,0.634766,-1,0,-5,-8,-1,-2,-4,0,2899
0.486477,-0.903739,3.07398,73.0625,9.75,22.1875,0.115234,0.147461,0.634766,-5,-3,4,-5,-3,-3,-39,-4,2915
0.502763,-0.714855,-3.13644,44.6875,68.625,-48.1875,0.120117,0.334473,0.862793,2,-2,-2,-8,3,-2,2,-1,2987
0.502763,-0.714855,-3.13644,44.6875,68.625,-48.1875,0.120117,0.334473,0.862793,7,6,25,3,2,0,-4,-2,3004
0.515733,-0.669097,3.13723,24.0625,74.875,-70.4375,0.125488,0.361328,0.816406,-7,-11,-4,1,-5,-3,-1,-4,3021
0.52726,-0.571113,3.09742,-25.5,77.625,-111,0.0507813,0.536621,0.995117,2,24,-8,-5,-1,3,5,-2,3038
0.52726,-0.571113,3.09742,-25.5,77.625,-111,0.0507813,0.536621,0.995117,-13,-5,-70,-17,-4,-5,-18,-9,3055
0.52726,-0.571113,3.09742,-25.5,77.625,-111,0.0507813,0.536621,0.995117,-2,11,17,22,-1,6,0,1,3072
0.525101,-0.484574,3.04651,-38.9375,68.1875,-109.438,0.524414,0.97998,1.40479,2,-6,-41,-47,-5,-7,10,-4,3089
0.511231,-0.443866,3.02526,-71.8125,77.8125,-104.188,1.06641,1.22021,1.52979,7,16,25,-3,-7,-4,21,7,3106
0.511231,-0.443866,3.02526,-71.8125,77.8125,-104.188,1.06641,1.22021,1.52979,4,-6,-19,-10,-3,-8,-10,5,3123
0.488505,-0.39974,2.99998,-100.875,85.25,-119,1.17871,1.24854,1.56396,-2,-14,21,8,-2,2,14,4,3140
0.46491,-0.35428,2.97081,-103.313,87.125,-130.313,1.06982,1.07471,1.43604,-3,-10,13,18,5,6,0,0,3156
0.44654,-0.309086,2.94091,-85.5625,88.75,-131.875,0.993652,0.953613,1.27393,-1,-1,14,12,1,2,9,-3,3175
0.434638,-0.265503,2.90991,-65.375,84.9375,-132.375,0.848633,0.905273,1.07813,-1,3,16,-2,-3,-4,-2,-1,3191
0.426295,-0.226504,2.88268,-49.625,77.75,-117.438,0.734375,0.84375,0.874512,-2,-3,-19,-8,-1,-2,1,-2,3208
0.419808,-0.194009,2.85773,-39.1875,64,-104,0.652344,0.686523,0.685059,-3,-3,-5,-3,-3,-3,-1,-3,3225
0.4206,-0.175252,2.8331,-29.5,49.1875,-94.3125,0.547852,0.53418,0.510742,0,-1,1,0,0,-2,-2,0,3243
0.435537,-0.154306,2.7932,-3.6875,21.25,-31.625,0.403809,0.302734,0.0283203,-3,0,2,-3,-1,-2,2,-4,3304
0.439776,-0.154275,2.78957,-1.5,16.5625,-17,0.324219,0.162598,-0.0610352,-5,-6,-11,-9,-8,-10,-20,0,3321
0.439816,-0.156367,2.79044,-5.0625,13.75,-2.875,0.275879,0.0366211,-0.120605,-1,-7,-6,-1,3,-1,10,3,3339
0.439816,-0.156367,2.79044,-5.0625,13.75,-2.875,0.275879,0.0366211,-0.120605,-3,-1,0,-1,0,1,-3,-2,3356
0.439188,-0.162569,2.79515,-4.5625,6.125,12.875,0.243164,0.00390625,-0.156738,-1,-2,-1,-3,-4,-2,-4,-2,3374
0.440166,-0.175671,2.80349,0.6875,-2.875,28.375,0.314453,0.0205078,-0.165039,-3,0,19,8,-1,-1,-2,-1,3391
0.440166,-0.175671,2.80349,0.6875,-2.875,28.375,0.314453,0.0205078,-0.165039,7,41,1,4,0,-3,-14,-2,3409
0.441262,-0.196808,2.8167,0.75,-10.0625,47.8125,0.442871,0.0864258,-0.131348,-2,6,-20,-17,-10,-5,-8,-4,3426
0.436685,-0.221758,2.83543,-10.125,-6.3125,62.75,0.585449,0.112305,-0.0361328,1,-5,19,20,9,2,11,3,3444
0.428417,-0.248307,2.8612,-17.125,-3.75,83.625,0.664063,0.312988,0.32373,-3,-20,-39,-13,-8,-14,-27,1,3460
0.424012,-0.270877,2.892,5.125,-18.0625,103.063,0.630371,0.666504,0.79834,-7,-18,-24,-19,-10,-11,10,8,3477
0.434697,-0.312523,2.9227,48.125,-67.4375,126.125,0.808594,1.03564,1.15674,-11,-47,-86,-50,-24,-10,1,21,3494
0.459485,-0.363553,2.95393,100,-91.8125,138.125,0.899414,0.813477,1.55615,127,122,127,127,127,127,3,-108,3511
0.491956,-0.414004,2.98402,124.875,-89.75,136,1.00293,0.950195,1.64795,-65,14,127,127,80,89,18,-74,3527
0.51312,-0.459173,3.0109,91.3125,-78.1875,123.813,1.00928,1.01416,1.56592,-128,-123,68,14,-14,-34,38,-37,3544
0.527523,-0.498478,3.03471,73.0625,-68.5625,108.75,0.937012,0.893066,1.59766,-13,69,-84,-55,-53,-53,6,25,3561
0.542228,-0.594267,3.11056,47.75,-55.5625,90.25,0.146484,0.537109,1.01318,-46,33,48,37,23,28,-4,-34,3666
0.560591,-0.631572,-3.13391,66.625,-60.3125,86.125,-0.181152,0.336426,0.685547,14,-22,-1,-1,-3,-8,2,-2,3681
0.572435,-0.652248,-3.11387,77.25,-56.3125,82.875,-0.188477,0.164063,0.53418,40,18,-17,-13,-7,-13,13,14,3698
0.572435,-0.652248,-3.11387,77.25,-56.3125,82.875,-0.188477,0.164063,0.53418,14,-8,-9,-7,-7,-7,4,5,3715
0.580332,-0.66567,-3.09605,62.8125,-39,65,-0.247559,0.0693359,0.405273,3,-15,-3,3,3,-4,-4,1,3732
0.578784,-0.66858,-3.08202,31.75,-22.4375,41.375,-0.41748,-0.0341797,0.328613,0,11,-3,2,4,1,1,-4,3749
0.566094,-0.65986,-3.07255,-3.75,-6,14.375,-0.545898,-0.14209,0.326172,-4,3,-6,-3,0,1,8,-4,3764
0.551317,-0.640912,-3.07217,-26.0625,5.6875,-16.5625,-0.605469,-0.14502,0.310059,-5,-3,-1,-3,-4,-2,-8,-1,3781
0.551317,-0.640912,-3.07217,-26.0625,5.6875,-16.5625,-0.605469,-0.14502,0.310059,-7,-24,-11,-11,0,-2,-7,1,3798
0.551317,-0.640912,-3.07217,-26.0625,5.6875,-16.5625,-0.605469,-0.14502,0.310059,-7,-24,-11,-11,0,-2,-7,1,3814
0.540237,-0.581151,-3.10301,-23.5625,14.6875,-73,-0.629883,-0.104004,0.283203,-5,25,-1,2,3,1,-4,1,3831
0.540237,-0.581151,-3.10301,-23.5625,14.6875,-73,-0.629883,-0.104004,0.283203,-10,2,-11,-6,-2,-4,-6,-5,3847
0.542132,-0.541972,-3.12676,-26.125,31.0625,-89.1875,-0.476563,0.0947266,0.32373,-1,10,0,-6,-1,-3,9,4,3864
0.535077,-0.462185,3.09264,-74.875,53.25,-131.375,-0.205078,0.905762,1.11035,15,-22,33,17,-13,-6,-4,3,3881
0.535077,-0.462185,3.09264,-74.875,53.25,-131.375,-0.205078,0.905762,1.11035,12,-42,-20,-5,-8,-7,-8,1,3899
0.517981,-0.412954,3.05071,-105.188,58.0625,-156.563,0.0922852,1.25928,1.55664,-108,38,17,34,25,35,-3,-28,3915
0.433905,-0.265307,2.92785,-125.5,74.1875,-168.375,0.88916,1.51758,1.87207,16,-1,-23,-41,-11,-29,22,38,3976
0.404655,-0.214454,2.8872,-111.625,86.9375,-162.75,0.971191,1.53174,1.80518,-29,-56,-57,-71,-26,-34,20,35,3992
0.371177,-0.166955,2.85506,-113.438,91.875,-135.5,1.04932,1.56348,1.62451,-28,-40,8,0,2,2,-14,2,4010
0.349214,-0.129895,2.83241,-83.25,90.6875,-100.938,1.02441,1.11279,1.21045,3,6,19,9,10,3,2,-4,4028
0.345257,-0.108245,2.81224,-41.4375,91.5625,-91.375,0.88623,0.634766,0.760742,3,6,-19,-17,-6,-8,8,3,4044
0.345257,-0.108245,2.81224,-41.4375,91.5625,-91.375,0.88623,0.634766,0.760742,-5,-12,-14,-7,-4,-4,2,3,4060
0.346109,-0.0822708,2.79335,-21.75,91.1875,-88.375,0.645508,0.490234,0.546875,-4,-3,-3,0,-1,2,-7,0,4077
0.349635,-0.0604736,2.77779,-9.25,75.5,-73.3125,0.51123,0.391602,0.375488,4,2,9,5,4,6,-2,-9,4095
0.349635,-0.0604736,2.77779,-9.25,75.5,-73.3125,0.51123,0.391602,0.375488,4,16,30,28,17,17,2,-13,4111
0.351998,-0.0452709,2.76754,-6.625,60.875,-52.75,0.473145,0.270996,0.237793,-2,1,-9,-1,15,-1,6,-1,4128
0.353211,-0.0354908,2.7613,-6,47.375,-36.0625,0.42041,0.177246,0.10791,-4,-5,-4,-9,-1,3,0,-4,4145
0.356373,-0.0324373,2.75958,0.4375,31.375,-16.5625,0.387207,0.118652,-0.0341797,-4,-7,-10,-4,-10,-8,2,-4,4163
0.359324,-0.0354105,2.76238,3.8125,24.375,-0.4375,0.457031,0.00634766,-0.174805,-4,-7,-10,-4,-10,-8,2,-4,4181
0.358593,-0.0409439,2.76785,-4.125,24.4375,7.5,0.512695,-0.059082,-0.263184,-5,-15,-8,-6,-9,-10,3,9,4198
0.358593,-0.0409439,2.76785,-4.125,24.4375,7.5,0.512695,-0.059082,-0.263184,-9,-14,-9,-22,-7,-3,0,3,4215
0.360736,-0.0476951,2.77535,-1.625,22.25,14.75,0.507813,0.0458984,-0.231445,-9,-14,-9,-22,-7,-3,0,3,4231
0.369057,-0.16667,2.90912,22.9375,-54.625,148.188,0.605469,1.05371,1.03857,1,4,-6,-19,-11,-4,-8,4,4299
0.369057,-0.16667,2.90912,22.9375,-54.625,148.188,0.605469,1.05371,1.03857,76,-4,33,27,22,23,-2,-10,4317
0.383424,-0.22341,2.95435,60.4375,-101.375,178,0.582031,0.94043,1.46582,98,-11,7,15,21,33,8,-15,4334
0.413671,-0.287959,3.00027,117.375,-119.563,189.25,0.649902,0.924316,1.72412,-106,18,127,124,66,73,-2,-29,4350
0.44825,-0.357199,3.03888,129.063,-139.938,182,0.577148,1.26807,1.91016,-55,30,1,17,-40,-48,-17,-51,4366
0.44825,-0.357199,3.03888,129.063,-139.938,182,0.577148,1.26807,1.91016,29,-38,-126,-104,-50,-70,-5,47,4384
0.473181,-0.427577,3.07783,112.125,-138.313,184.625,0.744629,1.125,1.93018,63,-47,-61,-66,-44,-52,-7,73,4401
0.486622,-0.487375,3.1119,81.1875,-118,160.5,0.746582,1.09619,1.98682,-3,-22,-11,-16,4,7,-1,15,4417
0.490651,-0.539205,3.13954,49.3125,-108.75,136.688,0.494141,1.08105,1.84766,-9,4,35,33,15,20,-4,-4,4434
0.492008,-0.58599,-3.12006,41.1875,-102,118.438,0.286133,0.702637,1.49561,4,30,52,38,26,45,-2,-28,4451
0.496584,-0.611909,-3.10123,47.5,-85.1875,93.125,0.0820313,0.529785,1.10938,-14,32,47,39,23,25,6,-33,4469
0.503828,-0.631335,-3.087,46.875,-75.3125,77.125,-0.145508,0.427246,0.849609,2,-20,1,-2,0,-15,1,6,4485
0.512562,-0.648149,-3.07564,46.4375,-72.375,68.4375,-0.313965,0.331543,0.663086,9,-32,-27,-15,-8,-10,1,8,4503
0.512562,-0.648149,-3.07564,46.4375,-72.375,68.4375,-0.313965,0.331543,0.663086,6,-4,-16,-9,-5,-10,-1,10,4521
0.518382,-0.679787,-3.04971,30.875,-62.125,62.1875,-0.491211,0.0654297,0.403809,6,15,-10,-14,-12,-10,-4,5,4538
0.518382,-0.679787,-3.04971,30.875,-62.125,62.1875,-0.491211,0.0654297,0.403809,11,12,-3,0,0,-2,0,3,4555
0.523522,-0.622233,-3.1017,-27.5625,2.375,-92.5625,-0.459961,-0.0249023,0.352539,1,9,-5,-14,2,-7,-3,-10,4653
0.52737,-0.592254,3.14146,-52.125,19.125,-121.875,-0.295898,0.0454102,0.439941,6,6,3,-9,-6,-25,3,6,4670
0.525726,-0.551645,3.09287,-78.1875,33.125,-156,-0.21875,0.233887,0.663574,-9,-25,-18,-51,-10,-6,-6,3,4689
0.526433,-0.501162,3.03855,-77.3125,45.875,-181.938,-0.133789,0.724609,1.17432,12,9,28,28,8,10,14,5,4705
0.526433,-0.501162,3.03855,-77.3125,45.875,-181.938,-0.133789,0.724609,1.17432,28,-46,-17,24,2,3,5,5,4723
0.52029,-0.445612,2.98249,-97.0625,56.75,-194.125,0.162598,1.38184,1.63672,-26,15,7,33,1,-6,-15,-14,4741
0.492287,-0.392361,2.93309,-137.688,70.4375,-187.063,0.712402,1.58936,1.91895,-113,24,59,25,23,35,1,-34,4758
0.492287,-0.392361,2.93309,-137.688,70.4375,-187.063,0.712402,1.58936,1.91895,-1,93,106,108,54,81,-8,-68,4776
0.39562,-0.270656,2.85266,-170.688,118.375,-173.625,0.89502,1.45654,1.79004,11,-12,-82,-61,-45,-50,12,48,4793
0.360605,-0.21058,2.81455,-139.438,128.5,-161.688,0.841797,1.4834,1.67529,-30,-57,-76,-66,-26,-35,6,39,4810
0.330209,-0.153574,2.78107,-119.813,131,-144.5,0.769531,1.43018,1.4375,-29,-49,-16,-26,-12,-7,5,10,4827
0.305047,-0.102597,2.758,-95.125,127.375,-109.063,0.665039,1.2583,1.13672,21,11,20,10,14,22,4,-3,4844
0.288453,-0.0615077,2.74452,-61.4375,111.813,-73.5,0.687988,0.883301,0.813477,1,2,5,1,6,7,-16,-7,4860
0.288453,-0.0615077,2.74452,-61.4375,111.813,-73.5,0.687988,0.883301,0.813477,0,2,-1,-2,5,11,-8,-8,4877
0.288883,-0.0370149,2.73316,-29.75,97.3125,-61.3125,0.599121,0.610352,0.553711,-3,8,17,14,9,6,0,-11,4894
0.293751,-0.0180034,2.72636,-10.5625,80.9375,-43.9375,0.522461,0.47168,0.374512,4,17,10,5,-1,-3,-5,-3,4911
0.339413,-0.0430474,2.75237,32.125,1.125,20.25,0.487305,0.0380859,-0.147461,0,-1,1,-2,1,5,-3,-1,5018
0.339413,-0.0430474,2.75237,32.125,1.125,20.25,0.487305,0.0380859,-0.147461,-3,-1,-5,-4,-5,-8,-20,-5,5036
0.351711,-0.0619653,2.76365,24.5625,-9.875,38.4375,0.462891,0.153809,-0.10498,-4,-4,-11,-16,-7,-8,12,0,5053
0.360545,-0.0870721,2.78203,16.8125,-16,63.0625,0.509766,0.162598,-0.0649414,-1,-10,-4,-2,-2,3,10,4,5070
0.362657,-0.116277,2.80515,1,-22.5625,80.125,0.516602,0.20752,0.0849609,1,10,17,-3,0,-1,-5,2,5087
0.363243,-0.14829,2.83231,-4.5625,-33.375,97.3125,0.464355,0.410156,0.425781,11,13,-20,5,2,2,1,-2,5103
0.363243,-0.14829,2.83231,-4.5625,-33.375,97.3125,0.464355,0.410156,0.425781,7,32,24,36,12,14,12,-6,5121
0.36816,-0.185983,2.86792,22.3125,-61.3125,132.688,0.439941,0.911133,0.964844,4,-4,-43,-54,-9,3,5,0,5137
0.382809,-0.246041,2.91134,59.125,-113.75,178.063,0.493652,1.16357,1.37744,62,13,-24,67,30,37,-5,-21,5154
0.414035,-0.321533,2.96094,127.563,-144.375,209.125,0.81543,0.899414,1.81396,127,-33,98,127,80,119,7,-46,5171
0.458031,-0.391475,3.00381,165.75,-128.75,188.438,1.10547,1.08643,1.77393,-116,37,127,64,43,46,26,-31,5188
0.497318,-0.448178,3.03192,142.313,-112.125,142.5,0.899902,1.21094,1.80273,27,-55,-128,-128,-94,-117,-10,68,5205
0.525307,-0.495495,3.05537,108.438,-93.9375,122.375,0.758301,1.19531,1.78467,64,-46,-118,-104,-53,-66,-7,92,5222
0.525307,-0.495495,3.05537,108.438,-93.9375,122.375,0.758301,1.19531,1.78467,-5,-14,-23,-9,-1,6,-10,25,5239
0.54584,-0.527308,3.06978,71.3125,-86.6875,98.375,0.618164,1.13965,1.63721,-5,-14,-23,-9,-1,6,-10,25,5256
0.553894,-0.551002,3.08513,41.625,-73.3125,92.1875,0.362793,0.970215,1.42773,-4,1,5,18,12,15,1,-3,5273
0.552705,-0.570282,3.10284,18.3125,-61.875,92.5,0.171875,0.84668,1.19922,4,-25,1,2,-2,-8,1,0,5324
0.531504,-0.600268,-3.13882,3.625,-50.6875,87.75,-0.194824,0.423828,0.82959,-1,10,-12,-10,-7,-13,8,4,5341
0.521412,-0.61392,-3.11493,18.1875,-44.4375,84.125,-0.29541,0.192383,0.609863,-1,10,-12,-10,-7,-13,8,4,5358
0.518778,-0.626826,-3.09128,42.3125,-38.5,77.0625,-0.355469,0.0288086,0.410156,-4,-10,-13,-7,-2,-2,4,6,5375
0.522293,-0.636013,-3.07144,53.3125,-30.3125,62.1875,-0.404297,-0.0405273,0.273926,1,19,2,-1,-4,-1,-3,1,5392
0.524006,-0.639963,-3.05951,34.625,-28.125,39.4375,-0.536133,-0.106445,0.159668,2,-15,-3,-4,-2,-2,-19,-8,5409
0.512329,-0.641469,-3.04958,-1.1875,-31.3125,31.0625,-0.677246,-0.225586,0.161621,36,-4,-3,-29,-3,-1,-12,-3,5426
0.512329,-0.641469,-3.04958,-1.1875,-31.3125,31.0625,-0.677246,-0.225586,0.161621,-6,9,0,2,-12,1,-28,2,5443
0.483187,-0.634211,-3.04932,-31.4375,-24,-11.625,-0.513184,-0.131836,0.246582,-12,-8,-4,5,-29,-15,12,2,5459
0.483187,-0.634211,-3.04932,-31.4375,-24,-11.625,-0.513184,-0.131836,0.246582,-16,-6,29,48,57,17,30,0,5475
0.471183,-0.617101,-3.06508,-53.625,-3.5,-45.375,-0.308594,0.0385742,0.361816,22,38,6,6,10,1,-2,-2,5493
0.46037,-0.587295,-3.08822,-61.8125,13.875,-73.4375,-0.297852,0.147949,0.585938,-15,-12,-34,-19,-2,-2,11,-6,5510
0.458896,-0.556483,-3.11999,-53.875,32.6875,-101.375,-0.206543,0.552246,1.08252,-9,16,42,9,5,-5,-5,-2,5526
0.457479,-0.517937,3.12496,-65.875,46.1875,-123.938,0.0737305,1.12207,1.45166,-9,-28,-31,0,-7,-7,-11,-5,5543
0.457479,-0.517937,3.12496,-65.875,46.1875,-123.938,0.0737305,1.12207,1.45166,20,-8,28,20,-1,6,-2,-3,5561
0.449527,-0.473306,3.08585,-82.375,64.875,-137.813,0.540039,1.31592,1.81787,-35,-1,37,25,13,19,-2,-14,5578
0.322956,-0.20564,2.88778,-117.938,108.563,-133.188,0.949707,1.33594,1.28076,-7,-21,-2,-8,2,2,-7,1,5674
0.29898,-0.161446,2.85796,-92.1875,106.375,-120.688,0.86084,0.788574,0.927246,0,6,5,2,5,6,7,-9,5691
0.28683,-0.120032,2.82677,-54.25,96.9375,-120.938,0.634277,0.613281,0.693359,2,3,6,6,3,1,-1,-9,5709
0.280121,-0.0871699,2.79903,-33.3125,77,-104,0.553223,0.503906,0.501953,-5,9,11,4,4,5,4,-8,5725
0.280121,-0.0871699,2.79903,-33.3125,77,-104,0.553223,0.503906,0.501953,7,15,12,9,7,9,-9,-13,5743
0.278474,-0.0707923,2.77573,-30.0625,63.3125,-85.875,0.569336,0.397949,0.3125,8,14,17,12,9,10,5,-10,5760
0.275762,-0.0597191,2.7577,-28,51.625,-67.125,0.539551,0.302734,0.158691,0,8,-10,-9,1,-4,6,3,5777
0.275762,-0.0597191,2.7577,-28,51.625,-67.125,0.539551,0.302734,0.158691,-5,-10,-13,-13,-10,-16,-26,5,5794
0.275762,-0.0597191,2.7577,-28,51.625,-67.125,0.539551,0.302734,0.158691,-7,-11,3,-1,-1,2,-3,-2,5811
0.270278,-0.052182,2.7382,-12.125,24.8125,-11.875,0.464844,0.0371094,-0.228027,-1,0,3,-1,-5,-2,9,1,5828
0.270278,-0.052182,2.7382,-12.125,24.8125,-11.875,0.464844,0.0371094,-0.228027,0,-3,-10,-8,-10,-4,4,-1,5846
0.270278,-0.052182,2.7382,-12.125,24.8125,-11.875,0.464844,0.0371094,-0.228027,5,-22,-2,-5,-1,-2,-30,2,5862
0.280493,-0.0822517,2.74853,1,-0.0625,23.25,0.500488,0.173828,-0.195801,1,-3,-8,-1,-7,-4,-11,-1,5879
0.280493,-0.0822517,2.74853,1,-0.0625,23.25,0.500488,0.173828,-0.195801,-2,4,1,3,22,11,0,0,5896
0.282818,-0.103323,2.76445,-7.3125,-9.75,51.625,0.533203,0.237305,-0.112305,-4,-5,-14,-11,11,4,-2,5,5913
0.286043,-0.13003,2.78989,-7.4375,-15.1875,83,0.591797,0.395996,0.0717773,-2,-5,0,-2,-10,-14,5,4,5930
0.319824,-0.250541,2.90781,90.9375,-119.625,172,0.510254,1.0293,1.7998,-17,0,127,95,45,66,-71,-68,5996
0.3645,-0.319012,2.96176,166.375,-128.938,204.75,1.04639,0.988281,1.79736,-17,0,127,95,45,66,-71,-68,6013
0.40452,-0.375504,2.99987,146.125,-107.188,156.625,1.08398,1.14893,1.7915,-81,-67,47,19,17,-10,51,-27,6030
0.40452,-0.375504,2.99987,146.125,-107.188,156.625,1.08398,1.14893,1.7915,47,40,-97,-69,-68,-107,-11,39,6047
0.427765,-0.419606,3.03236,101.875,-82,130.375,0.815918,0.879395,1.83252,-96,-77,-104,-37,-50,-56,-8,8,6065
0.466429,-0.475606,3.06952,83.1875,-74.4375,81.5625,0.479004,0.899902,1.65625,113,-7,-59,-53,-4,-5,36,54,6083
0.466429,-0.475606,3.06952,83.1875,-74.4375,81.5625,0.479004,0.899902,1.65625,-29,70,104,53,52,88,1,-44,6099
0.48598,-0.495458,3.08113,62.375,-68.9375,74.0625,0.276855,0.892578,1.37256,-58,3,7,22,0,5,-1,-50,6117
0.495527,-0.513582,3.09888,52.4375,-63.4375,83.75,0.0249023,0.612305,1.146,-82,-103,-29,-33,-69,-49,-35,-53,6133
0.498441,-0.533328,3.11827,40.75,-59.3125,83.8125,0.00878906,0.423828,0.926758,3,-53,-33,-59,27,28,0,-59,6151
0.498441,-0.533328,3.11827,40.75,-59.3125,83.8125,0.00878906,0.423828,0.926758,102,13,8,-29,41,-27,-43,38,6168
0.499137,-0.551981,-3.13944,46.6875,-48.75,93,-0.0664063,0.293945,0.769531,2,-3,-7,-14,34,11,-17,-5,6185
0.500897,-0.569862,-3.1139,45.25,-41.9375,92.4375,-0.120605,0.274902,0.542969,13,10,1,14,0,4,16,6,6202
0.500897,-0.569862,-3.1139,45.25,-41.9375,92.4375,-0.120605,0.274902,0.542969,-45,0,-16,-28,2,6,-14,-3,6220
0.483859,-0.597126,-3.06668,20.125,-33.9375,68.5,-0.257813,-0.0341797,0.370117,-19,19,-14,-12,3,12,50,-1,6237
0.476524,-0.606621,-3.05043,20.8125,-35.875,49.75,-0.288086,-0.104492,0.390137,-39,-3,15,-2,-41,-6,75,25,6255
0.388537,-0.598626,-2.98845,-60.9375,-20.125,-7.5625,-0.501465,-0.283691,0.248535,35,30,-2,-7,19,10,-19,-4,6325
0.388537,-0.598626,-2.98845,-60.9375,-20.125,-7.5625,-0.501465,-0.283691,0.248535,-3,-17,1,32,6,-2,-41,-21,6342
0.37346,-0.587111,-2.99896,-35.0625,-20.4375,-37,-0.440918,-0.291992,0.475586,41,45,58,-24,9,8,32,20,6360
0.385028,-0.56966,-3.02338,-4.5625,-10.625,-59.5625,-0.0546875,0.331055,0.86084,-36,-50,-55,26,47,7,11,-6,6377
0.394821,-0.529317,-3.06107,-60.5625,16.5625,-84.875,-0.115234,1.13428,1.37988,0,9,-81,-67,-6,1,-15,3,6394
0.378442,-0.5114,-3.10269,-106.375,8.625,-115.375,0.118652,1.39502,1.93994,10,-20,9,27,17,-8,49,15,6411
0.347849,-0.479945,-3.13786,-135.688,52.5625,-114.75,1.35938,1.51074,1.99219,-24,-27,-21,-42,-9,4,-8,-17,6427
0.347849,-0.479945,-3.13786,-135.688,52.5625,-114.75,1.35938,1.51074,1.99219,-31,25,87,39,47,53,40,-11,6445
0.326144,-0.427456,3.09059,-130.875,95.25,-182.813,1.13135,1.53174,1.93994,11,92,86,63,36,51,30,-42,6461
0.302631,-0.364218,3.03626,-127.313,128,-192.813,0.902832,1.54785,1.75928,45,63,44,23,-1,1,-13,-23,6478
0.276065,-0.297246,2.98297,-141.25,148.563,-189.813,0.835938,1.42139,1.58008,-11,-12,-59,-59,-41,-42,3,17,6496
0.251302,-0.231065,2.93072,-122.625,150.5,-186.875,0.629883,1.14941,1.42334,60,5,-41,-62,-20,-17,8,28,6514
0.235522,-0.170618,2.88534,-85.8125,145.563,-164.625,0.658691,1.16895,1.18213,-17,-33,-12,-6,-2,2,3,-11,6530
0.222981,-0.113088,2.84854,-62.0625,146.625,-139.938,0.677246,0.874023,0.879883,-10,-7,38,31,9,19,-13,-22,6548
0.213065,-0.057317,2.81951,-44.5,148,-116.813,0.621582,0.672363,0.554688,-3,8,38,27,16,19,-9,-14,6564
0.213065,-0.057317,2.81951,-44.5,148,-116.813,0.621582,0.672363,0.554688,1,-41,-2,2,-2,-8,8,5,6582
0.183001,0.083006,2.7751,-34.4375,127.875,-47.5,0.71875,0.241699,0.0244141,-32,-49,-13,-15,-36,-23,-1,12,6641
0.1736,0.121976,2.77022,-27.3125,119.438,-36.0625,0.707031,0.103516,-0.0830078,-14,-10,-5,-4,-12,2,3,-3,6658
0.16924,0.154869,2.76615,-9.6875,100.938,-29.0625,0.644043,-0.109375,-0.181152,-4,11,-6,-3,-1,3,-7,-5,6675
0.169959,0.168116,2.76264,9.5625,74.875,-22.0625,0.637695,-0.135254,-0.262695,7,11,17,55,-6,-9,-13,18,6692
0.177094,0.167962,2.76209,16.875,42.0625,-9.5625,0.683594,0.019043,-0.222168,28,36,-5,-39,-55,-5,7,21,6709
0.193819,0.157119,2.76696,28.4375,23.9375,6.625,0.813965,0.22168,-0.196777,-17,-2,28,16,34,25,-5,-12,6727
0.193819,0.157119,2.76696,28.4375,23.9375,6.625,0.813965,0.22168,-0.196777,-1,16,34,-4,-3,1,1,-13,6744
0.200835,0.137869,2.77685,3,8.75,24.875,0.867188,0.186035,-0.00488281,-3,37,52,1,-27,-10,-16,-15,6760
0.207676,0.109173,2.79352,0.375,-3.875,47.6875,0.953125,0.267578,0.362793,-5,17,-17,-6,-37,-29,-18,-8,6778
0.207676,0.109173,2.79352,0.375,-3.875,47.6875,0.953125,0.267578,0.362793,4,-13,-15,-17,10,-32,12,49,6794
0.246725,0.0387149,2.8436,39.8125,-71.6875,100.313,0.392578,1.05273,1.29834,-40,-110,-82,-99,-72,-59,-19,34,6812
0.28978,-0.0173696,2.88526,116.063,-119.875,156.438,0.243164,0.873535,1.76123,-13,-58,-79,-74,-23,-10,-12,26,6829
0.337532,-0.08426,2.93359,137.813,-139.563,191.375,0.198242,1.02686,1.87256,120,47,127,108,86,88,-33,-45,6846
0.377212,-0.162214,2.97435,122.5,-170.438,187.938,0.237305,1.08594,1.85889,-115,-34,34,32,34,38,11,-29,6864
0.377212,-0.162214,2.97435,122.5,-170.438,187.938,0.237305,1.08594,1.85889,34,127,127,127,127,127,-30,-95,6881
0.414806,-0.240567,3.01237,125.938,-166,185.875,0.522949,1.05322,1.89551,-13,-44,-61,-51,-54,-100,44,-41,6898
0.458643,-0.427067,3.09158,44.4375,-116.563,144.75,0.250488,0.850586,1.46777,10,26,-103,-77,-29,-32,-5,84,6956
0.458643,-0.427067,3.09158,44.4375,-116.563,144.75,0.250488,0.850586,1.46777,12,-11,9,2,3,22,-14,24,6974
0.452281,-0.521017,-3.12333,34.4375,-88.4375,142.313,-0.0893555,0.583496,0.996582,-24,-16,8,18,24,28,-7,-21,6991
0.448088,-0.566837,-3.08713,41.3125,-88.6875,141.563,-0.188965,0.374512,0.720215,28,-23,7,-7,0,4,-1,-11,7010
0.446949,-0.609491,-3.05106,55.9375,-81.3125,133.063,-0.208008,0.137207,0.565918,30,-13,2,8,-5,-4,2,-4,7026
0.448534,-0.64654,-3.01742,63.375,-68.8125,117.563,-0.223633,0.0126953,0.404785,-3,12,9,3,0,2,-1,-1,7044
0.448534,-0.64654,-3.01742,63.375,-68.8125,117.563,-0.223633,0.0126953,0.404785,-7,31,4,7,14,9,2,0,7061
0.445141,-0.668444,-2.98693,50.3125,-52.3125,96.1875,-0.262695,0.0175781,0.306641,-2,17,6,0,-2,-5,-21,-7,7077
0.436458,-0.679215,-2.96473,21.75,-35.5625,65.375,-0.369141,-0.019043,0.248047,-5,7,7,5,-4,1,-4,-7,7093
0.418341,-0.680684,-2.95034,-16.1875,-25.4375,38.125,-0.523926,-0.102051,0.227539,17,3,-9,-1,-27,-9,0,1,7110
0.397046,-0.676631,-2.94398,-34.375,-24.6875,12.75,-0.58252,-0.182617,0.284668,-3,17,3,5,-12,0,14,3,7127
0.397046,-0.676631,-2.94398,-34.375,-24.6875,12.75,-0.58252,-0.182617,0.284668,13,-3,-16,-10,1,-1,2,-6,7144
0.382001,-0.668381,-2.94655,-31.375,-19.3125,-12.4375,-0.532227,-0.21582,0.291992,-19,-12,2,-18,0,3,7,0,7161
0.376029,-0.653056,-2.96061,-34.1875,-2.8125,-39.4375,-0.396484,-0.0424805,0.286621,0,20,19,27,1,-5,-10,0,7178
0.377868,-0.624896,-2.98668,-37.8125,14.6875,-71.4375,-0.335449,0.16748,0.509766,-14,-20,-31,-20,4,-2,-3,-1,7196
0.382349,-0.596618,-3.0232,-49.6875,28.9375,-102.125,-0.337402,0.597168,1.03711,1,9,34,8,7,3,-2,0,7213
0.272209,-0.418528,3.05701,-114.813,105.875,-137.625,1.23389,1.2041,1.64209,11,3,-8,-37,-16,-17,5,12,7319
0.272209,-0.418528,3.05701,-114.813,105.875,-137.625,1.23389,1.2041,1.64209,-8,-30,-34,-11,-6,-11,-24,0,7335
0.221803,-0.318349,2.97106,-133.438,121.188,-143.063,0.879883,1.04688,1.39746,-6,-23,-14,-10,-5,0,20,1,7352
0.196753,-0.270204,2.93458,-113.938,121.938,-124.875,0.794434,0.960449,1.19434,-17,-26,-2,9,5,6,0,-7,7369
0.196753,-0.270204,2.93458,-113.938,121.938,-124.875,0.794434,0.960449,1.19434,-1,-1,3,10,27,10,-6,0,7386
0.180753,-0.225418,2.90457,-76.875,120.063,-105.188,0.781738,0.784668,0.90918,0,7,1,3,3,-2,15,-4,7405
0.179491,-0.184763,2.87855,-27.75,111.625,-92.8125,0.711426,0.628906,0.578613,3,14,-2,1,-5,-7,-9,-4,7422
0.179491,-0.184763,2.87855,-27.75,111.625,-92.8125,0.711426,0.628906,0.578613,-1,-1,4,3,2,7,4,-4,7438
0.204447,-0.123042,2.83646,13.0625,91.375,-70.5625,0.478516,0.404297,0.09375,-3,-6,-9,-2,1,-5,-12,4,7455
0.215072,-0.100733,2.82332,7.375,86.5,-54.4375,0.463867,0.266602,-0.0805664,-2,-7,-9,-5,-9,-9,18,3,7472
0.222094,-0.0811699,2.81595,4.1875,84.6875,-39.3125,0.498047,0.161133,-0.234863,3,-2,-4,-2,-4,0,5,1,7489
0.229752,-0.0642525,2.81271,11.1875,81.0625,-27.1875,0.518555,0.0673828,-0.344727,0,3,-4,-5,-5,-3,-10,0,7506
0.229752,-0.0642525,2.81271,11.1875,81.0625,-27.1875,0.518555,0.0673828,-0.344727,-1,-6,-4,-3,0,-2,-12,-2,7523
0.240057,-0.0506742,2.81226,22.3125,74.625,-19,0.539551,0.0131836,-0.391602,-2,-3,-2,3,4,1,-1,2,7541
0.250242,-0.0411774,2.81351,18.9375,64.75,-12.125,0.552734,0.0639648,-0.366211,2,5,8,10,0,-1,-14,-1,7559
0.260335,-0.0392677,2.82122,14.25,51.9375,9.8125,0.61084,0.168457,-0.229004,2,5,8,10,0,-1,-14,-1,7577
0.266057,-0.0765906,2.86513,-19.4375,-2.5625,82.3125,0.757813,0.475098,0.387695,-5,-16,-11,43,-4,-11,2,1,7635
0.266057,-0.0765906,2.86513,-19.4375,-2.5625,82.3125,0.757813,0.475098,0.387695,4,9,-80,-69,-36,-30,2,10,7651
0.266057,-0.0765906,2.86513,-19.4375,-2.5625,82.3125,0.757813,0.475098,0.387695,21,28,-44,-14,-28,-49,2,39,7668
0.336492,-0.207582,2.96234,143.25,-118.75,135.5,0.728516,0.976563,1.83496,-21,-11,-81,-111,-51,-57,-33,32,7685
0.386391,-0.271387,2.99669,157.188,-136.625,156.375,0.63623,1.35693,1.90527,127,100,127,127,127,127,-14,-128,7702
0.386391,-0.271387,2.99669,157.188,-136.625,156.375,0.63623,1.35693,1.90527,16,-13,-128,-128,-117,-128,22,60,7718
0.440213,-0.398503,3.06471,100.375,-121.625,149.313,0.742676,0.859375,1.79004,3,41,-128,-96,-82,-87,-3,75,7735
0.461079,-0.447652,3.0857,82.125,-107.438,114.25,0.584961,1.00049,1.65967,-17,10,-109,-101,-65,-67,9,77,7752
0.461079,-0.447652,3.0857,82.125,-107.438,114.25,0.584961,1.00049,1.65967,60,-14,-32,-32,5,-5,-31,32,7769
0.471535,-0.490049,3.10639,54,-93.25,107.5,0.308105,0.993652,1.57422,-39,-17,41,33,25,39,6,-21,7785
0.474805,-0.53028,3.12851,39.0625,-88.1875,108.188,0.0810547,0.795898,1.35303,-43,-4,41,41,28,35,-7,-27,7804
0.474805,-0.53028,3.12851,39.0625,-88.1875,108.188,0.0810547,0.795898,1.35303,1,-13,-3,6,0,-1,-2,-7,7819
0.478563,-0.605972,-3.10899,44.25,-79.3125,101,-0.149414,0.368652,0.813477,9,-22,-10,0,-7,-11,-1,1,7837
0.481733,-0.629883,-3.08699,50.5625,-73,91.875,-0.194824,0.240723,0.637695,4,-16,-11,-16,-4,-8,-3,0,7855
0.481733,-0.629883,-3.08699,50.5625,-73,91.875,-0.194824,0.240723,0.637695,5,-27,-14,-15,-11,-10,-6,1,7871
0.486215,-0.651982,-3.0663,53.375,-66,84.0625,-0.234863,0.163086,0.493652,5,-27,-14,-15,-11,-10,-6,1,7889
0.455701,-0.653863,-3.01742,-26.5625,13,-18.0625,-0.57666,-0.125,0.183105,5,5,6,1,1,0,0,4,7978
0.443345,-0.62799,-3.02108,-28.375,22.8125,-31.625,-0.603027,-0.154297,0.253418,-6,-16,-8,-6,-2,1,-5,1,7996
0.438208,-0.598455,-3.0328,-23.1875,27,-51.3125,-0.461914,-0.0483398,0.356934,12,6,3,-17,80,5,1,1,8013
0.44352,-0.563138,-3.05995,-28.6875,22.125,-81.5625,-0.35498,0.305664,0.615723,39,10,-78,12,42,12,-1,0,8029
0.449512,-0.533173,-3.09272,-35.5625,31.25,-101.313,-0.18457,0.771973,1.07227,-20,-45,-78,-29,-20,-9,-11,-20,8047
0.449512,-0.533173,-3.09272,-35.5625,31.25,-101.313,-0.18457,0.771973,1.07227,16,-39,-18,-14,-14,-3,1,3,8064
0.458026,-0.484674,-3.12512,-47.375,51.75,-99.1875,0.318848,1.28857,1.68115,16,-39,-18,-14,-14,-3,1,3,8080
0.448114,-0.443747,3.13147,-67.4375,73.25,-108.75,0.79541,1.2207,1.84863,-102,9,120,2,-11,6,-7,0,8098
0.422417,-0.389507,3.10094,-109,107.188,-138.313,0.993164,1.5,1.78809,32,81,127,96,27,60,7,-59,8115
0.422417,-0.389507,3.10094,-109,107.188,-138.313,0.993164,1.5,1.78809,47,39,-24,-13,-26,-37,-21,31,8133
0.422417,-0.389507,3.10094,-109,107.188,-138.313,0.993164,1.5,1.78809,-12,-32,-64,-54,-4,-48,-65,25,8149
0.370044,-0.260358,3.01383,-116.25,133,-180.5,0.784668,1.47217,1.90039,-9,-26,-26,-20,-2,4,61,9,8167
0.338308,-0.197826,2.97012,-134.25,132.938,-175.563,0.772949,1.51758,1.68457,-42,-52,18,14,14,22,51,-7,8184
0.30402,-0.141634,2.92897,-132.688,124.25,-161.75,0.688965,1.35156,1.47217,-12,-20,32,24,29,52,63,1,8200
0.30402,-0.141634,2.92897,-132.688,124.25,-161.75,0.688965,1.35156,1.47217,-28,10,6,15,-20,-5,0,-31,8218
0.249804,-0.0513576,2.85551,-83.25,99.3125,-134.938,0.584473,0.648438,0.705078,50,20,-10,-26,-22,-2,19,10,8235
0.189617,0.025173,2.76841,-75.6875,59.5625,-70.75,0.495117,0.288086,0.0224609,116,11,1,-36,-16,-12,-55,-7,8294
0.189617,0.025173,2.76841,-75.6875,59.5625,-70.75,0.495117,0.288086,0.0224609,-2,26,-8,-36,-46,-12,35,48,8310
0.189617,0.025173,2.76841,-75.6875,59.5625,-70.75,0.495117,0.288086,0.0224609,-120,-45,-24,-17,-24,-33,89,68,8328
0.155342,0.036539,2.74019,-38.8125,24.125,-37.3125,0.415039,0.0600586,-0.225098,84,-25,-19,-21,21,-5,-72,-19,8344
0.15785,0.0297205,2.73819,-1.25,13,-8.125,0.501953,0.0771484,-0.312012,-52,13,11,-14,-17,-18,89,-11,8361
0.165449,0.0124281,2.74237,6.875,-0.8125,12.0625,0.689453,0.151367,-0.405273,-29,-28,-9,21,3,7,-85,-69,8377
0.169838,-0.0104915,2.75349,-3.625,-8,33.75,0.765137,0.176758,-0.333984,23,-7,6,-11,-32,-14,50,7,8394
0.169838,-0.0104915,2.75349,-3.625,-8,33.75,0.765137,0.176758,-0.333984,72,-9,-3,48,22,29,-12,39,8411
0.17394,-0.0367318,2.77363,-1.625,-17.6875,61.6875,0.685059,0.161621,-0.280273,2,23,-9,-74,-12,16,11,37,8428
0.176295,-0.069585,2.79765,0.9375,-36.1875,76.625,0.65332,0.115723,-0.0976563,-37,-30,-21,-1,2,3,-2,-14,8445
0.176295,-0.069585,2.79765,0.9375,-36.1875,76.625,0.65332,0.115723,-0.0976563,-50,-17,-26,-1,-16,-13,13,34,8462
0.222181,-0.15044,2.87437,99.5625,-98.375,148.375,0.862793,0.736816,0.837402,-50,-17,-26,-1,-16,-13,13,34,8478
0.262595,-0.206927,2.92117,130.063,-115,166.375,0.924805,0.931641,1.32129,-74,-44,-25,-73,-49,-28,-18,24,8496
0.306616,-0.270297,2.96914,149.438,-131.5,179.875,0.86377,1.09131,1.69922,94,104,50,78,46,76,27,-41,8513
0.336677,-0.329995,3.02041,129.563,-118,187.313,0.979492,1.16602,1.92139,127,105,107,98,114,118,-14,-102,8530
0.336677,-0.329995,3.02041,129.563,-118,187.313,0.979492,1.16602,1.92139,-93,33,127,127,112,127,59,-98,8548
0.402726,-0.511946,-3.11887,71.3125,-77.1875,122.5,0.360352,0.99707,1.75098,60,21,52,91,56,36,-19,-23,8631
0.406631,-0.543721,-3.0875,53.5625,-63.375,113.125,0.222168,0.838379,1.44531,-50,41,63,44,46,65,-32,-41,8647
0.4074,-0.556228,-3.05992,38.5,-52.375,99.5,-0.0219727,0.621094,1.20313,-49,-21,17,85,8,-13,53,-11,8665
0.4074,-0.556228,-3.05992,38.5,-52.375,99.5,-0.0219727,0.621094,1.20313,46,-22,-15,-25,-26,-14,-29,-9,8681
0.406173,-0.565013,-3.03511,32.3125,-46.5625,86.625,-0.192383,0.458496,0.970703,9,-25,-10,8,3,4,6,7,8699
0.399169,-0.578231,-2.98686,28.125,-36.1875,73.9375,-0.392578,0.151855,0.51709,21,-10,-15,-46,-6,-11,-1,2,8716
0.390716,-0.582316,-2.96516,17.5,-25.625,61.4375,-0.427246,-0.0102539,0.324707,-55,-6,-1,-13,-9,7,7,-13,8732
0.390716,-0.582316,-2.96516,17.5,-25.625,61.4375,-0.427246,-0.0102539,0.324707,-74,-12,0,31,-44,-8,28,-3,8749
0.369819,-0.571891,-2.9463,-6.125,-15.0625,9,-0.636719,-0.186035,0.196289,10,-1,-11,-34,-10,-2,-8,9,8766
0.369819,-0.571891,-2.9463,-6.125,-15.0625,9,-0.636719,-0.186035,0.196289,11,-6,-15,-20,-1,-12,-4,7,8783
0.360894,-0.558745,-2.94781,-12.4375,-9.3125,-11.0625,-0.672852,-0.221191,0.181152,-3,14,-8,-33,14,-1,2,0,8800
0.357453,-0.54154,-2.95748,-9.625,-1.875,-34.125,-0.625977,-0.218262,0.152832,36,11,16,28,34,7,-24,8,8816
0.357659,-0.51587,-2.97771,-19.3125,11.25,-63.5,-0.600098,-0.100098,0.195801,-12,-16,9,-1,-8,-15,-30,-4,8833
0.362169,-0.482796,-3.00625,-18.8125,23.9375,-89.875,-0.482422,-0.000976563,0.36377,50,-4,19,-10,-2,5,-2,2,8850
0.362169,-0.482796,-3.00625,-18.8125,23.9375,-89.875,-0.482422,-0.000976563,0.36377,-31,-2,-14,31,30,8,57,12,8867
0.372847,-0.45027,-3.04382,-17.9375,43.375,-119.813,-0.31543,0.229004,0.620117,-44,26,26,39,-8,-10,-27,-22,8884
0.31581,-0.264238,3.05492,-151.25,106.25,-178.875,0.895996,1.375,2.04834,45,-2,-13,15,-23,-32,-18,17,8954
0.28089,-0.201846,3.00067,-135.938,126.375,-197.188,0.79834,1.40625,1.96533,7,1,-48,-78,-15,-36,-16,24,8972
0.28089,-0.201846,3.00067,-135.938,126.375,-197.188,0.79834,1.40625,1.96533,-2,-14,-25,-58,-37,-30,9,39,8989
0.208702,-0.0900944,2.89361,-129.25,116.813,-181.75,0.666504,1.25049,1.68555,-9,-37,-7,31,-17,3,-28,14,9006
0.208702,-0.0900944,2.89361,-129.25,116.813,-181.75,0.666504,1.25049,1.68555,-6,-11,8,-31,-5,11,9,-19,9022
0.181985,-0.0481933,2.84883,-102.25,102.563,-149.5,0.596191,1.26416,1.36719,-6,-11,8,-31,-5,11,9,-19,9038
0.181985,-0.0481933,2.84883,-102.25,102.563,-149.5,0.596191,1.26416,1.36719,-43,0,-1,-33,5,9,-25,-23,9056
0.154615,0.0117257,2.7821,-37.875,71,-103.438,0.607422,0.719727,0.668945,44,13,9,7,-7,-1,-4,6,9074
0.160811,0.0214673,2.75616,-14.375,53.5,-84.1875,0.533203,0.555176,0.412109,14,2,19,26,14,6,-24,2,9090
0.160811,0.0214673,2.75616,-14.375,53.5,-84.1875,0.533203,0.555176,0.412109,-4,13,-16,-45,-16,-6,-9,-8,9107
0.167224,0.02664,2.73826,-12.375,42.0625,-59.625,0.515137,0.509766,0.197266,-8,-28,-13,6,-14,-15,-3,-7,9124
0.169336,0.0275259,2.72884,-17.125,32.375,-33.9375,0.503906,0.362793,0.0600586,3,7,4,10,7,2,93,20,9141
0.168877,0.0243937,2.72634,-14.125,21.375,-11.125,0.466309,0.178711,-0.0893555,16,-15,-13,-31,0,5,6,8,9158
0.168877,0.0243937,2.72634,-14.125,21.375,-11.125,0.466309,0.178711,-0.0893555,25,13,21,53,-17,0,20,-3,9176
0.171586,0.0161707,2.72814,2.5625,9.5625,3.5,0.475098,0.0390625,-0.192871,3,10,1,-23,-3,4,3,1,9193
0.17696,0.00455432,2.73208,13.625,2,10.875,0.48877,-0.0180664,-0.244141,8,-4,-13,-44,-3,6,-1,-6,9211
0.186704,-0.0715381,2.78612,-1.125,-29.25,65.75,0.500488,0.135742,0.100098,3,-1,-39,-13,-2,-6,0,2,9281
0.198781,-0.106338,2.81335,20.875,-52.5625,91,0.506836,0.397949,0.507324,88,-6,-23,-37,-12,-6,59,35,9298
0.222052,-0.145337,2.85081,70.0625,-79.875,127.313,0.589355,0.808594,1.01563,12,1,-33,-19,-9,-14,10,10,9314
0.256984,-0.19766,2.89604,111.063,-109.938,160.25,0.660645,1.05957,1.48291,-10,24,-19,-43,-28,-38,-11,10,9332
0.256984,-0.19766,2.89604,111.063,-109.938,160.25,0.660645,1.05957,1.48291,78,108,97,127,120,117,-88,-119,9349
0.293325,-0.256427,2.9444,125,-120.125,177,0.829102,1.14844,1.76563,96,12,127,127,127,127,13,-120,9366
0.318195,-0.313255,2.99193,109.75,-116.125,173.563,0.792969,1.28955,1.94873,-14,41,-119,-75,-107,-128,11,37,9382
0.337554,-0.363818,3.03489,90.3125,-100.688,159.125,0.721191,1.04883,1.89893,-14,41,-119,-75,-107,-128,11,37,9399
0.337554,-0.363818,3.03489,90.3125,-100.688,159.125,0.721191,1.04883,1.89893,3,-9,-128,-83,-59,-64,-8,57,9417
0.34893,-0.405696,3.0709,66.75,-83.8125,133.375,0.641113,0.968262,1.80078,29,-7,-52,-72,-23,-15,-1,42,9434
0.34893,-0.405696,3.0709,66.75,-83.8125,133.375,0.641113,0.968262,1.80078,19,-6,7,-18,22,25,-15,2,9451
0.368579,-0.459688,3.12249,50,-68.8125,96.6875,0.21582,0.810059,1.54541,-66,16,44,-1,23,38,-31,-24,9468
0.368579,-0.459688,3.12249,50,-68.8125,96.6875,0.21582,0.810059,1.54541,-14,0,31,-6,25,24,-9,-23,9486
0.391416,-0.493208,-3.11524,48.375,-59.25,92.125,-0.0727539,0.581055,1.03906,47,3,-8,-20,-12,-6,1,2,9503
0.394726,-0.506355,-3.0915,39.0625,-51.4375,87.9375,-0.194336,0.415527,0.838379,6,-8,-32,-76,-14,-3,10,6,9521
0.393888,-0.517325,-3.06811,30.875,-44.75,81.375,-0.275391,0.269043,0.662598,16,-15,-1,73,14,-13,13,14,9538
0.362071,-0.506402,-3.01158,-4.875,-2.125,-8.25,-0.496094,-0.166992,0.195313,-13,-5,-2,34,-2,-5,-28,-2,9639
0.356948,-0.487757,-3.0183,-9.8125,9.0625,-29.875,-0.491211,-0.172363,0.217285,6,-20,-30,-56,15,3,-3,4,9656
0.351935,-0.460433,-3.03247,-20.5,23.25,-54.0625,-0.501953,-0.119141,0.283203,-28,25,11,41,4,-6,-25,-11,9674
0.348115,-0.424477,-3.05448,-27.4375,36.3125,-79.125,-0.494141,-0.0327148,0.413086,10,-2,-7,-14,-13,-2,-27,-4,9691
0.348115,-0.424477,-3.05448,-27.4375,36.3125,-79.125,-0.494141,-0.0327148,0.413086,9,-23,20,-3,-33,-7,-38,-6,9709
0.353422,-0.394666,-3.0879,-23.3125,37.625,-107.063,-0.446777,0.31543,0.858887,-91,-14,15,25,-3,-5,-11,-9,9726
0.364861,-0.363846,-3.12868,-16.1875,29.3125,-124.563,-0.407715,0.921387,1.44531,-41,40,44,30,15,42,-19,-50,9743
0.37227,-0.329119,3.11231,-28.75,43.5,-135.563,0.0683594,1.24658,1.73877,70,93,31,37,24,29,-11,-31,9759
0.362837,-0.280412,3.06454,-68.125,83.375,-171.875,0.527832,1.63135,1.90283,107,57,3,-15,-3,13,54,-3,9776
0.362837,-0.280412,3.06454,-68.125,83.375,-171.875,0.527832,1.63135,1.90283,69,15,-5,11,-1,-24,42,39,9793
0.305365,-0.156664,2.96011,-128.75,132,-199.5,0.631836,1.72607,1.89844,-55,-29,-68,-54,-21,-31,-12,31,9810
0.305365,-0.156664,2.96011,-128.75,132,-199.5,0.631836,1.72607,1.89844,-94,-83,-51,-32,-19,-19,3,6,9827
0.266808,-0.0886739,2.90945,-128.188,146.125,-193,0.661133,1.57715,1.78467,-65,-83,0,4,11,12,58,-3,9845
0.238433,-0.0290345,2.86447,-106.313,143.813,-169.25,0.622559,1.39648,1.43066,57,30,55,54,22,34,-26,-30,9861
0.211855,0.0245037,2.8284,-88.375,138.688,-138,0.681152,0.960449,1.06787,47,50,21,36,15,7,36,-23,9879
0.19325,0.0705197,2.7952,-58.0625,120.25,-122.125,0.551758,0.705078,0.797852,47,50,21,36,15,7,36,-23,9897
0.173215,0.0925901,2.71691,-1.4375,-7.6875,-7.75,0.577148,-0.09375,-0.181152,21,3,5,18,-5,-1,-4,3,10006
0.173215,0.0925901,2.71691,-1.4375,-7.6875,-7.75,0.577148,-0.09375,-0.181152,1,14,11,12,17,6,20,10,10024
0.173428,0.0725298,2.71603,1.125,-19.625,0.875,0.570801,-0.043457,-0.213867,-2,25,-3,-3,8,4,30,-5,10042
0.174067,0.0467559,2.71981,-3.5,-30.75,16.125,0.611816,0.0302734,-0.20459,-15,4,10,16,15,-2,-59,-11,10060
0.174955,0.0149155,2.73051,-6.875,-41.9375,38.125,0.632324,0.0957031,-0.161133,-15,4,10,16,15,-2,-59,-11,10077
0.17882,-0.0240462,2.74719,-0.5,-57.3125,59.0625,0.651367,0.17041,0.0180664,-16,-4,-15,-16,3,-8,-18,4,10095
0.17882,-0.0240462,2.74719,-0.5,-57.3125,59.0625,0.651367,0.17041,0.0180664,-24,-17,-9,8,-13,-17,-17,5,10112
0.21527,-0.115762,2.8092,53.9375,-94.25,130.625,0.733887,0.95166,0.958496,-24,-17,-9,8,-13,-17,-17,5,10129
0.245262,-0.171087,2.8552,93.25,-118.188,163.188,0.646973,1.02295,1.38135,35,29,78,3,19,36,9,-8,10146
0.245262,-0.171087,2.8552,93.25,-118.188,163.188,0.646973,1.02295,1.38135,58,-64,105,120,57,85,14,-42,10162
0.282944,-0.234458,2.90562,126.938,-134,185.188,0.708984,1.11426,1.66699,51,70,103,127,112,126,1,-71,10179
0.319176,-0.29664,2.95735,132.125,-125.875,191.875,0.746582,1.25635,1.8501,-5,124,114,114,56,37,15,-71,10196
0.336811,-0.352418,3.00765,87.375,-108.188,184.438,0.6875,1.23779,1.81494,-128,-88,-113,-102,-96,-128,-22,-42,10213
0.340337,-0.39965,3.05323,50.9375,-91.0625,163.875,0.59375,1.11816,1.86377,-14,-68,-128,-128,-128,-126,58,125,10230
0.343509,-0.440507,3.09303,49.75,-81.8125,142.188,0.480469,1.02686,1.78711,97,-44,-124,-107,-101,-119,-4,124,10246
0.343509,-0.440507,3.09303,49.75,-81.8125,142.188,0.480469,1.02686,1.78711,15,-25,-1,2,15,30,-24,-13,10264
0.356356,-0.545764,-3.06675,32.125,-50.25,93.9375,-0.147461,0.407715,0.813477,30,-15,-3,17,11,1,7,-1,10337
0.356356,-0.545764,-3.06675,32.125,-50.25,93.9375,-0.147461,0.407715,0.813477,22,-25,-14,-15,-21,-5,-7,-2,10354
0.352935,-0.558184,-3.03995,30.5625,-46.0625,86.625,-0.212402,0.248535,0.647949,-3,-10,-14,4,-12,-6,-18,-4,10372
0.349626,-0.569838,-3.01588,31,-43.5625,75.5625,-0.277344,0.103516,0.460938,-6,-5,-5,-16,-2,-18,-13,-4,10389
0.34535,-0.579873,-2.99687,26.0625,-39.1875,57,-0.270996,-0.0283203,0.342773,9,1,-4,-10,-8,1,-3,1,10406
0.341378,-0.587043,-2.97739,16.75,-27.6875,20.625,-0.394531,-0.118164,0.210938,-8,6,-4,-21,-7,7,19,0,10424
0.341378,-0.587043,-2.97739,16.75,-27.6875,20.625,-0.394531,-0.118164,0.210938,-22,-5,-7,23,7,-5,-21,-8,10440
0.336625,-0.583692,-2.9741,1.75,-18.1875,7.3125,-0.435547,-0.126953,0.165527,1,2,-5,35,24,-1,-24,-10,10458
0.336625,-0.583692,-2.9741,1.75,-18.1875,7.3125,-0.435547,-0.126953,0.165527,-5,24,13,31,6,-1,-13,5,10475
0.33044,-0.573417,-2.97957,-14.1875,-9.8125,-18.625,-0.503418,-0.171875,0.157715,-13,-30,7,22,17,-4,0,-9,10492
0.32455,-0.552194,-2.99486,-27.625,5.4375,-49.5,-0.575195,-0.158203,0.233887,-2,2,-16,-18,-11,0,24,1,10510
0.32455,-0.552194,-2.99486,-27.625,5.4375,-49.5,-0.575195,-0.158203,0.233887,18,6,23,29,-12,-3,3,22,10527
0.369957,-0.455624,-3.09523,-13.125,51.25,-128.5,-0.508301,0.916504,1.09033,-2,5,8,-15,-5,-11,6,7,10544
0.369957,-0.455624,-3.09523,-13.125,51.25,-128.5,-0.508301,0.916504,1.09033,-16,-59,11,-23,4,-1,-42,-12,10561
0.377314,-0.408421,3.1393,-47,64.125,-156.563,-0.288574,1.27197,1.65576,-64,-43,-23,-20,-1,-4,-57,-24,10578
0.371328,-0.356434,3.0881,-71.875,89,-181.563,0.26416,1.43311,1.99121,30,63,36,4,-5,-9,25,1,10596
0.270743,-0.108648,2.8818,-102.188,132.438,-185.75,0.878906,1.15186,1.49658,-25,-46,-74,-75,-32,-55,4,55,10666
0.270743,-0.108648,2.8818,-102.188,132.438,-185.75,0.878906,1.15186,1.49658,36,73,77,71,17,65,-5,-75,10683
0.252162,-0.0549532,2.83478,-75.5625,122.375,-170.813,0.55127,1.00537,1.20654,69,19,121,105,22,30,-51,-85,10700
0.232855,-0.0122083,2.79288,-69.6875,98.375,-147.875,0.508301,0.840332,0.932617,-107,3,24,-30,29,28,-16,-24,10716
0.215633,0.0202904,2.75668,-57.1875,77.125,-124,0.525391,0.655273,0.708984,54,34,108,98,59,65,9,-2,10735
0.202994,0.0434517,2.72592,-41,54.6875,-102.063,0.458008,0.544434,0.45459,127,81,22,13,11,11,30,31,10752
0.198115,0.0513532,2.70281,-33.875,41.125,-76.9375,0.456055,0.390625,0.231445,96,126,38,59,26,5,-48,-22,10768
0.19263,0.0569528,2.68647,-31.125,36.0625,-56,0.433105,0.279297,0.0493164,71,26,-109,-128,-19,-69,-33,14,10786
0.19263,0.0569528,2.68647,-31.125,36.0625,-56,0.433105,0.279297,0.0493164,-12,-111,-128,-122,-25,-33,35,49,10804
0.191367,0.05726,2.67692,-17.0625,23.4375,-33.25,0.41748,0.213379,-0.0649414,-65,-97,-60,-55,-8,-12,63,34,10821
0.191282,0.0516523,2.67364,-10.75,14,-12.8125,0.481445,0.124023,-0.20459,-23,-66,0,15,9,14,-26,-2,10837
0.189441,0.0433708,2.67636,-12,14.625,4.75,0.554688,0.0400391,-0.275391,-8,-4,19,16,3,16,7,-8,10854
0.187948,0.0345981,2.68253,-9.1875,13.4375,15.375,0.527344,0.0136719,-0.257813,-1,-25,9,57,-24,-7,-1,-2,10872
0.191249,0.0209393,2.69361,-1.75,3.1875,31.25,0.539551,0.107422,-0.219238,61,-8,-4,56,-1,-10,-16,18,10890
0.193765,-0.00191757,2.71213,-6.125,-7.9375,55.4375,0.685059,0.158203,-0.12207,16,7,15,0,-1,0,-20,0,10908
0.193765,-0.00191757,2.71213,-6.125,-7.9375,55.4375,0.685059,0.158203,-0.12207,39,-35,-33,-23,-11,-20,12,18,10925
0.274194,-0.280243,2.95638,32.625,-152.75,212.625,0.601074,1.32861,2.12842,33,90,121,127,76,127,-1,12,11032
0.281329,-0.346339,3.01074,61.6875,-141.5,196.813,0.736816,0.968262,1.89551,-50,93,117,116,127,119,7,-68,11049
0.281329,-0.346339,3.01074,61.6875,-141.5,196.813,0.736816,0.968262,1.89551,-118,-114,-128,-128,26,-111,12,-20,11066
0.289215,-0.399823,3.05656,65.6875,-115.313,163.5,0.706543,0.900391,1.94238,115,-49,-128,-128,-86,-105,-18,116,11082
0.304129,-0.444328,3.09391,82,-97.3125,133.938,0.626465,0.870117,1.79199,55,3,-64,-29,-71,16,-16,45,11099
0.317032,-0.475596,3.13038,78.75,-63.9375,120.938,0.448242,0.865234,1.68896,16,3,15,28,-39,46,-16,-26,11116
0.33457,-0.501488,-3.12035,90.1875,-54.625,107.125,0.0473633,0.724609,1.35645,-49,32,30,44,-16,48,-11,-30,11133
0.350504,-0.527112,-3.08777,87.8125,-53.9375,107.688,-0.145996,0.684082,1.10596,-11,5,21,36,7,17,3,-31,11151
0.366455,-0.559749,-3.05915,82.1875,-73.875,106.625,-0.244629,0.744141,0.791504,4,-24,19,-9,-17,1,-1,-13,11168
0.366455,-0.559749,-3.05915,82.1875,-73.875,106.625,-0.244629,0.744141,0.791504,5,-7,-33,-15,-18,-5,-2,1,11185
0.374632,-0.594165,-3.03067,66.0625,-75.9375,103.938,-0.194824,0.39209,0.652832,-8,-39,-6,2,-5,4,5,5,11202
0.389626,-0.615954,-3.01177,78.6875,-76.0625,74.6875,-0.297852,0.105957,0.472168,0,-9,-3,11,11,2,0,-7,11220
0.407258,-0.631397,-2.99869,80.5625,-58.875,51.375,-0.309082,-0.00732422,0.347168,-9,-6,-1,3,-5,-1,-5,-4,11238
0.407258,-0.631397,-2.99869,80.5625,-58.875,51.375,-0.309082,-0.00732422,0.347168,-10,-14,-1,0,-33,-6,3,-4,11256
0.408342,-0.636571,-2.97193,5,-17.1875,40.375,-0.521484,0.0283203,0.183594,3,20,-5,4,21,6,-3,-3,11272
0.392238,-0.628656,-2.9609,-19.0625,-6.875,23.75,-0.646484,-0.115234,0.118652,6,14,-5,-4,-20,-8,2,0,11288
0.370823,-0.590989,-2.96981,-14.5,3.8125,-41.875,-0.730469,-0.266602,0.137207,28,75,-57,-23,3,2,-5,-1,11343
0.380035,-0.565398,-2.9871,14.4375,9.3125,-58.9375,-0.65918,-0.203613,0.227539,-13,-9,8,29,-18,-4,-4,0,11360
0.395087,-0.532262,-3.00714,8.8125,33.4375,-63.6875,-0.376953,0.258789,0.435547,-11,-49,-53,-60,-4,0,-1,-3,11378
0.415785,-0.481976,-3.03877,-12.5,53.6875,-92.9375,-0.230469,0.939453,1.05371,15,-1,49,21,23,13,16,3,11395
0.415538,-0.446539,-3.07094,-52.9375,47.125,-104.75,-0.0932617,1.42139,1.52734,10,-28,-33,9,-10,-8,-4,5,11412
0.401876,-0.409382,-3.11113,-94.4375,52.5,-133.125,0.630859,1.31299,1.90967,-22,-56,48,-9,-4,-12,2,17,11431
0.380072,-0.362126,3.13183,-105.625,84.3125,-150.688,1.00781,1.62646,2.09619,-85,60,-2,53,56,76,-9,-73,11449
0.380072,-0.362126,3.13183,-105.625,84.3125,-150.688,1.00781,1.62646,2.09619,119,109,56,34,23,11,12,-25,11466
0.36092,-0.310194,3.08069,-103.25,88.5,-182.813,0.953613,1.62207,1.98682,-35,-22,-52,-54,-30,-53,10,42,11482
0.335277,-0.254504,3.03005,-114.25,102.5,-185.375,0.92041,1.58398,1.76318,-24,-68,-35,-30,-15,-15,2,26,11500
0.304537,-0.201705,2.97802,-137.313,105.75,-184.438,0.780273,1.47705,1.55664,-12,-44,-11,-15,-5,1,-21,3,11516
0.268925,-0.154322,2.93365,-140.625,103,-157.875,0.662109,1.31592,1.28467,9,22,9,7,7,7,-42,-20,11533
0.237439,-0.115733,2.89716,-116.625,89.5625,-128.813,0.611328,0.996094,0.97998,8,27,8,0,2,0,1,0,11551
0.216113,-0.0866158,2.86475,-78.5625,69.75,-109.938,0.59668,0.633301,0.648926,-2,3,-25,-13,-5,-8,-1,3,11568
0.216113,-0.0866158,2.86475,-78.5625,69.75,-109.938,0.59668,0.633301,0.648926,-6,-11,1,-4,1,0,2,-6,11585
0.213301,-0.0743194,2.83529,-43.75,53.75,-95.5,0.575684,0.515137,0.39502,7,24,23,15,8,12,1,-11,11603
0.193335,-0.076951,2.77885,-3.875,22.5625,-11.75,0.52832,-0.046875,-0.333496,-2,-7,1,-1,2,3,3,0,11697
0.197461,-0.0850848,2.77895,7.375,15.1875,-2.375,0.538086,-0.00244141,-0.338379,1,1,7,8,2,1,7,-3,11714
0.204338,-0.0976921,2.78255,9.25,6.5,10.1875,0.566406,0.103516,-0.328125,-1,-1,1,-1,1,0,5,-4,11731
0.204338,-0.0976921,2.78255,9.25,6.5,10.1875,0.566406,0.103516,-0.328125,13,32,-2,-6,-9,-5,-10,-3,11748
0.215678,-0.117171,2.79111,16.6875,-6.875,28.375,0.61377,0.219727,-0.229004,-19,-30,-8,-27,-6,-7,-8,-1,11766
0.223184,-0.139586,2.80905,6.5625,-6.9375,56.625,0.66748,0.308594,-0.0483398,4,-1,13,-15,-11,-10,4,5,11782
0.22908,-0.164738,2.83788,-7.875,-13.375,92.75,0.669434,0.658203,0.487305,2,8,16,26,-2,-8,-3,7,11799
0.231959,-0.193252,2.88205,15.3125,-43.9375,140.938,0.641602,1.1543,0.989258,-1,-9,-53,-14,-10,-7,1,8,11816
0.23862,-0.240863,2.92747,35.625,-98.625,156.938,0.666016,1.03955,1.45459,-17,-69,-33,-92,-49,-53,0,33,11834
0.269849,-0.296458,2.97371,120.563,-120,164.375,0.689453,0.75293,1.78271,-8,32,-73,-9,25,16,-10,24,11849
0.269849,-0.296458,2.97371,120.563,-120,164.375,0.689453,0.75293,1.78271,119,127,127,108,118,126,-33,-103,11868
0.269849,-0.296458,2.97371,120.563,-120,164.375,0.689453,0.75293,1.78271,127,125,120,127,127,124,-3,-85,11885
0.363695,-0.409305,3.05226,165.188,-121.375,153.313,0.719238,1.11621,1.90088,-128,-102,60,94,20,3,38,-117,11902
0.363695,-0.409305,3.05226,165.188,-121.375,153.313,0.719238,1.11621,1.90088,45,7,-128,-128,-128,-123,12,113,11920
0.400289,-0.460488,3.08596,140.438,-108.188,140.375,0.726074,1.15137,1.91797,45,-20,-121,-113,-73,-70,-22,79,11937
0.442679,-0.533611,3.12718,66.5,-87.0625,96.4375,0.402832,0.897461,1.50537,-2,7,22,15,27,35,-15,-22,11955
0.466283,-0.607873,-3.06095,51.9375,-56.375,94.1875,-0.241699,0.270996,0.632813,25,-33,-5,-13,1,-1,21,12,12061
0.479646,-0.649383,-3.00673,71.4375,-41.1875,82.5,-0.142578,0.0229492,0.319336,13,-26,-1,-4,-2,-5,1,1,12078
0.482749,-0.658136,-2.98826,44.8125,-25.0625,56.875,-0.214355,0.0688477,0.280762,5,-6,13,8,2,8,20,-2,12095
0.476658,-0.654869,-2.97566,10.9375,-7.25,30.5625,-0.391113,-0.0107422,0.234375,-4,17,-3,-3,-17,-6,-11,-2,12112
0.476658,-0.654869,-2.97566,10.9375,-7.25,30.5625,-0.391113,-0.0107422,0.234375,-7,15,-2,-2,-6,-10,-18,0,12130
0.465378,-0.641269,-2.96865,-7.3125,10.25,1.5625,-0.46875,-0.155762,0.211426,-4,21,-4,-8,-5,-6,-10,-1,12147
0.452899,-0.616387,-2.96966,-24.0625,33.125,-29.625,-0.426758,-0.163086,0.210449,-4,-11,-6,2,5,4,2,-5,12163
0.442877,-0.579214,-2.98034,-38.75,54.5625,-59.9375,-0.375977,-0.0131836,0.283203,1,3,24,12,6,-1,-31,-2,12181
0.436906,-0.530298,-3.00079,-49,71.9375,-88.1875,-0.362793,0.205566,0.405273,16,15,-2,-1,4,1,-1,0,12198
0.428892,-0.481044,-3.02862,-62.5625,87.4375,-116.75,-0.390137,0.395996,0.761719,-1,-19,-32,-14,1,-3,13,6,12215
0.419389,-0.422927,-3.06605,-78.375,96.125,-147,-0.467285,0.886719,1.3418,16,11,61,14,-1,1,2,4,12231
0.419389,-0.422927,-3.06605,-78.375,96.125,-147,-0.467285,0.886719,1.3418,-8,-36,22,3,32,18,0,-7,12249
0.413981,-0.373964,-3.10589,-67.3125,70.6875,-143.188,-0.353516,1.16211,1.56201,-24,-30,-40,-16,-14,13,1,-15,12265
0.410051,-0.325948,3.13829,-55.9375,77.25,-145.875,0.268555,1.28516,1.98291,-2,37,-1,53,33,7,12,-9,12282
0.410051,-0.325948,3.13829,-55.9375,77.25,-145.875,0.268555,1.28516,1.98291,-123,-5,-22,11,30,7,-3,-31,12299
0.35951,-0.231686,3.06299,-118.875,92.375,-155.063,0.95459,1.52588,1.8833,127,111,25,22,-1,2,1,10,12316
0.263331,-0.0699735,2.92611,-66.3125,78.75,-97.75,0.644043,0.80127,0.755371,127,127,120,119,76,87,-9,-65,12400
0.260489,-0.0526323,2.89968,-35.25,65.25,-94.25,0.569336,0.47998,0.529785,125,120,110,90,40,37,10,-35,12418
0.263034,-0.0389846,2.87526,-19.1875,49.9375,-84.8125,0.459473,0.432617,0.300781,-1,81,-41,-27,-30,-50,21,30,12434
0.268177,-0.0305364,2.85792,-8.9375,38.375,-61,0.419922,0.370117,0.140137,-35,-2,-76,-60,-47,-61,29,41,12450
0.268177,-0.0305364,2.85792,-8.9375,38.375,-61,0.419922,0.370117,0.140137,-40,-79,-73,-61,-37,-29,9,24,12467
0.272625,-0.0279389,2.84794,-5.8125,27.3125,-36.8125,0.419434,0.279297,0.0253906,-23,-68,-54,-46,-21,-18,-3,17,12484
0.273269,-0.0294509,2.84324,-11.875,19.875,-19.375,0.41748,0.171875,-0.101074,2,-46,7,6,12,6,0,-2,12501
0.273123,-0.0371655,2.84204,-11,5.9375,-4.75,0.419922,0.102051,-0.199219,0,-20,0,-2,12,1,-4,-3,12517
0.273899,-0.05455,2.84513,-2.6875,-10.3125,12.4375,0.521973,0.0131836,-0.248535,7,21,0,3,5,0,-14,-5,12534
0.273899,-0.05455,2.84513,-2.6875,-10.3125,12.4375,0.521973,0.0131836,-0.248535,-11,-9,-2,4,0,-2,0,-3,12551
0.272054,-0.0732516,2.85156,-7.625,-5.8125,20.8125,0.60498,-0.00585938,-0.190918,-7,0,-21,-13,-28,-5,2,0,12568
0.267715,-0.0905308,2.86095,-20.8125,-2.375,29.375,0.571289,0.125488,-0.106445,3,15,5,-15,13,-2,5,2,12585
0.262505,-0.109949,2.87611,-14.5625,-12.3125,48.625,0.443848,0.0385742,-0.0756836,4,-6,-6,25,-7,-5,-10,0,12602
0.262505,-0.109949,2.87611,-14.5625,-12.3125,48.625,0.443848,0.0385742,-0.0756836,-11,-21,-53,-35,-2,-5,2,6,12620
0.274719,-0.167297,2.91889,10.8125,-38.8125,81.125,0.602051,0.663574,0.664063,0,15,-17,-19,11,-1,-6,-2,12637
0.280636,-0.201345,2.95186,19.75,-62.75,117.313,0.571777,1.18848,1.05859,-15,-4,-68,-17,-12,-6,-4,-1,12654
0.393839,-0.371585,3.07778,159,-116.688,151.125,0.82666,1.36182,1.74414,-6,13,46,23,19,-29,14,-68,12723
0.412742,-0.423323,3.11263,86.625,-103.125,147.063,0.695801,1.21436,1.80127,33,-44,-128,-128,-77,-124,-8,127,12741
0.413308,-0.467585,-3.14001,35.5,-89.375,127.188,0.638672,1.03564,1.78955,88,16,-85,-85,-28,-40,-15,81,12757
0.41269,-0.506615,-3.11791,24.8125,-88.6875,102.125,0.407715,0.974609,1.65771,1,8,-77,-56,-16,-1,-14,38,12773
0.41269,-0.506615,-3.11791,24.8125,-88.6875,102.125,0.407715,0.974609,1.65771,27,-26,-10,-10,-5,17,-6,18,12789
0.419034,-0.532034,-3.10027,34.375,-87.0625,91.75,0.246582,0.79834,1.43115,-41,20,77,63,29,52,-7,-46,12807
0.425678,-0.553573,-3.08332,36.0625,-78.875,86.0625,0.0722656,0.677734,1.16943,-36,34,60,57,27,36,0,-47,12824
0.428605,-0.573339,-3.06362,33.875,-74.125,89.4375,-0.109863,0.523926,0.942383,-14,-14,-18,-15,-21,-19,3,-11,12841
0.435468,-0.609228,-3.03934,58.6875,-80.25,100.375,-0.263672,0.353516,0.793457,3,12,-10,1,2,-7,4,7,12858
0.448212,-0.645852,-3.01359,81.1875,-78.8125,102.188,-0.246094,0.193848,0.594238,19,-78,-31,-26,0,-8,-2,14,12876
0.448212,-0.645852,-3.01359,81.1875,-78.8125,102.188,-0.246094,0.193848,0.594238,-10,-25,-2,-3,-16,-12,-3,1,12893
0.459579,-0.667864,-2.98973,79.875,-64.125,86.5625,-0.230469,0.126465,0.469727,6,-4,-1,2,-1,3,-4,0,12910
0.464219,-0.677979,-2.97017,55.9375,-38.4375,61.0625,-0.298828,0.0439453,0.408691,8,20,1,-4,5,5,4,0,12927
0.460798,-0.675317,-2.95342,30.375,-10.5,38.25,-0.430176,-0.0463867,0.311523,-4,10,-14,-18,1,-3,4,-2,12944
0.446501,-0.659897,-2.9442,-9.75,5.5625,7.0625,-0.590332,-0.143555,0.340332,-3,-5,-3,-8,-9,0,-8,3,12961
0.437598,-0.636708,-2.94906,-23.6875,8.3125,-24.625,-0.730957,-0.0893555,0.262207,-3,16,9,-1,0,7,6,-3,12978
0.415812,-0.531582,-3.00434,-36.5,46.3125,-99.75,-0.374023,0.0546875,0.604004,14,-34,-12,-53,-5,-10,-11,-2,13045
0.424275,-0.49279,-3.03858,-26.1875,53.0625,-116.25,-0.339355,0.629883,1.07471,14,-34,-12,-53,-5,-10,-11,-2,13061
0.424275,-0.49279,-3.03858,-26.1875,53.0625,-116.25,-0.339355,0.629883,1.07471,-28,-34,-25,-15,-2,-2,-6,-4,13079
0.4288,-0.452314,-3.07417,-43.3125,58,-120.313,0.0673828,1.37744,1.51221,7,84,24,-8,4,5,-1,-2,13096
0.407842,-0.412723,-3.11558,-109.563,59.5625,-144.688,0.729004,1.51025,1.83936,-28,-59,29,79,13,10,1,-22,13113
0.370804,-0.36148,3.12646,-150.688,94.5,-156.75,0.90332,1.43604,1.86572,82,102,90,84,43,65,2,-57,13130
0.340779,-0.306445,3.07821,-131.438,102.438,-177.563,0.842285,1.4458,1.84326,41,18,-63,-47,-41,-58,-2,49,13146
0.309212,-0.251001,3.0298,-128.813,107.813,-177.125,0.819336,1.59131,1.70313,-40,-75,-60,-47,-29,-33,8,37,13164
0.272072,-0.199057,2.98393,-135.813,106.063,-165.438,0.78125,1.57959,1.60986,-16,-69,-27,-29,15,0,-11,10,13181
0.239324,-0.157462,2.94668,-129.75,97.4375,-131.188,0.713867,1.34766,1.28613,-23,-32,-4,-5,6,12,-2,-2,13198
0.216694,-0.123067,2.91388,-89.125,84.4375,-113.563,0.675293,0.882813,0.94873,-16,-6,7,8,1,5,-9,-7,13216
0.203304,-0.0917831,2.87992,-57.125,76.8125,-114.438,0.595703,0.638672,0.628418,-6,4,11,4,-2,10,6,-5,13232
0.203304,-0.0917831,2.87992,-57.125,76.8125,-114.438,0.595703,0.638672,0.628418,3,19,15,14,15,11,0,-9,13250
0.195853,-0.0637969,2.84881,-36.1875,69.5625,-104.125,0.53418,0.558594,0.427246,-3,3,16,9,1,-2,2,-14,13268
0.197118,-0.051258,2.82323,-33.6875,54.5625,-83.5,0.499512,0.539551,0.233887,0,6,9,6,2,2,3,-4,13285
0.197422,-0.0450309,2.80535,-26.5,40.125,-59.3125,0.484375,0.382813,0.0576172,-3,-10,-18,-18,-10,-9,-4,7,13302
0.200245,-0.0460147,2.78299,-0.75,18.0625,-30.3125,0.449707,0.0947266,-0.20166,24,30,0,-1,-2,-3,7,2,13347
0.20626,-0.0538053,2.77798,11.75,11,-16.5,0.519043,0.0131836,-0.27832,-1,-14,-5,-5,-2,-1,20,-5,13364
0.213292,-0.0624394,2.77711,11.1875,13.625,-5,0.556152,0.0629883,-0.304199,-2,3,0,-2,-1,0,9,-1,13381
0.213292,-0.0624394,2.77711,11.1875,13.625,-5,0.556152,0.0629883,-0.304199,-11,-21,-6,-4,-6,-1,0,0,13398
0.219665,-0.0709602,2.77877,6.875,14.5625,2.375,0.538574,0.109863,-0.300293,-11,-21,-6,-4,-6,-1,0,0,13415
0.224919,-0.0814863,2.78433,7.5625,11.375,14.5,0.542969,0.0737305,-0.231445,-9,11,-13,-15,-5,-11,-2,-2,13431
0.229404,-0.095815,2.79587,8.25,6.1875,32.9375,0.577148,0.0957031,-0.059082,-10,-11,9,8,-1,-8,-5,0,13448
0.229404,-0.095815,2.79587,8.25,6.1875,32.9375,0.577148,0.0957031,-0.059082,-4,-26,-9,-11,-3,-6,3,-3,13466
0.229404,-0.095815,2.79587,8.25,6.1875,32.9375,0.577148,0.0957031,-0.059082,-1,-33,-1,-18,-14,-10,-4,9,13482
0.273646,-0.18121,2.87329,61.8125,-88.1875,125.875,0.464844,1.15283,1.38574,-2,27,-69,29,5,-3,31,11,13500
0.320389,-0.245193,2.91455,153.563,-138.813,164.563,0.604492,0.885254,1.66113,-15,0,-80,-15,-21,-23,-18,14,13517
0.320389,-0.245193,2.91455,153.563,-138.813,164.563,0.604492,0.885254,1.66113,9,-49,100,92,64,65,6,-28,13536
0.422379,-0.379026,2.98777,159.938,-142.438,160.813,0.694336,1.21094,1.88721,-128,-67,-41,16,-15,-43,19,-54,13553
0.422379,-0.379026,2.98777,159.938,-142.438,160.813,0.694336,1.21094,1.88721,-66,32,-116,-50,-70,-121,19,23,13569
0.452499,-0.435495,3.02103,122.5,-112.313,150.063,0.790039,1.0415,1.91162,55,23,-128,-122,-103,-122,-7,78,13588
0.471003,-0.479494,3.04778,84.125,-87.75,122.063,0.692383,1.14844,1.84863,44,17,-52,-41,-3,-13,-14,50,13606
0.462978,-0.601942,-3.1014,43.625,-32.875,118.75,-0.0454102,0.521484,0.925293,18,-23,-9,-11,13,3,25,10,13698
0.452729,-0.626948,-3.06031,38,-31.625,123.125,-0.199219,0.419434,0.723145,8,-26,6,-12,-17,-10,5,6,13715
0.424741,-0.679142,-2.96894,36.125,-31.875,123.125,-0.24707,0.0170898,0.385254,4,-14,-4,-3,-8,-7,-9,-2,13732
0.424741,-0.679142,-2.96894,36.125,-31.875,123.125,-0.24707,0.0170898,0.385254,4,-14,-4,-3,-8,-7,-9,-2,13749
0.424741,-0.679142,-2.96894,36.125,-31.875,123.125,-0.24707,0.0170898,0.385254,80,23,-13,-30,29,13,76,27,13766
0.40462,-0.699267,-2.92998,16,-25.0625,102.563,-0.316406,-0.0952148,0.34375,-30,-2,5,8,44,3,-97,-78,13783
0.40462,-0.699267,-2.92998,16,-25.0625,102.563,-0.316406,-0.0952148,0.34375,-30,-2,5,8,44,3,-97,-78,13800
0.374665,-0.703466,-2.89836,-19,-13.5625,72.9375,-0.454102,-0.100098,0.151367,31,25,-12,-36,-3,13,-61,3,13817
0.32681,-0.693439,-2.86931,-42.5,-1.75,8.3125,-0.374512,-0.165527,0.222656,-37,-14,-5,-1,-15,-12,-20,-6,13834
0.304869,-0.672033,-2.87115,-43.25,20.9375,-30.9375,-0.427246,-0.349121,0.328613,5,8,16,9,-7,-8,3,1,13851
0.304869,-0.672033,-2.87115,-43.25,20.9375,-30.9375,-0.427246,-0.349121,0.328613,0,-20,-22,9,-7,-4,2,6,13868
0.32148,-0.618631,-2.90906,-0.6875,19.625,-66.3125,-0.385254,0.164063,0.433594,-3,-16,-61,-7,-11,-7,3,-9,13885
0.333141,-0.58048,-2.94501,-36.375,25.75,-90.0625,-0.289551,0.515625,0.909668,-26,-15,-48,42,-1,0,-3,4,13902
0.333141,-0.58048,-2.94501,-36.375,25.75,-90.0625,-0.289551,0.515625,0.909668,-29,-37,-50,-17,1,-1,-7,-19,13918
0.345726,-0.524602,-3.03089,-61.8125,30.4375,-128.063,0.387695,1.11035,1.59912,15,6,62,-17,-10,-5,-17,-9,13935
0.345726,-0.524602,-3.03089,-61.8125,30.4375,-128.063,0.387695,1.11035,1.59912,-52,-21,-8,-38,-7,-14,-78,-18,13953
0.288151,-0.326186,3.03176,-126.75,100.188,-181.938,0.658691,1.74951,1.82422,-18,-17,-43,-56,-14,-4,34,20,14036
0.288151,-0.326186,3.03176,-126.75,100.188,-181.938,0.658691,1.74951,1.82422,-1,-14,0,12,10,9,21,-2,14054
0.258026,-0.254028,2.95496,-58.9375,76.0625,-121.063,0.838379,0.910156,1.14014,83,37,21,-13,46,7,50,13,14070
0.258418,-0.218213,2.91711,-33.1875,81.3125,-128.375,0.73291,0.780762,0.810547,-42,10,33,27,17,28,-1,-43,14087
0.258418,-0.218213,2.91711,-33.1875,81.3125,-128.375,0.73291,0.780762,0.810547,12,-3,-10,49,19,-6,-77,-20,14105
0.239418,-0.143693,2.85543,-47.8125,91.8125,-102.813,0.554199,0.439453,0.448242,83,54,-21,-96,29,-6,29,19,14123
0.236902,-0.120846,2.83045,-39.8125,77.25,-88.5625,0.483398,0.41748,0.255859,103,8,3,-45,0,17,109,55,14140
0.236902,-0.120846,2.83045,-39.8125,77.25,-88.5625,0.483398,0.41748,0.255859,-24,-34,-38,-9,-37,-39,-40,0,14156
0.236902,-0.120846,2.83045,-39.8125,77.25,-88.5625,0.483398,0.41748,0.255859,17,-1,-23,-62,-43,-19,-17,-2,14173
0.220309,-0.0904389,2.79055,-28.6875,61.0625,-66.9375,0.483887,-0.0151367,-0.0712891,-128,-35,-17,-47,33,27,90,24,14189
0.219605,-0.0798685,2.77651,-6.5,54.75,-53.5,0.488281,-0.0419922,-0.279785,56,-24,-16,-17,1,15,3,77,14207
0.219605,-0.0798685,2.77651,-6.5,54.75,-53.5,0.488281,-0.0419922,-0.279785,41,3,-1,57,26,1,15,-3,14224
0.219605,-0.0798685,2.77651,-6.5,54.75,-53.5,0.488281,-0.0419922,-0.279785,-63,-84,-41,-28,-17,-35,-93,-68,14241
0.214967,-0.0800965,2.75674,-21.625,21.9375,-30.6875,0.588867,0.0961914,-0.381348,36,-18,-9,3,3,3,-2,-1,14258
0.209085,-0.0977381,2.75522,-29.125,2.8125,-4,0.760254,0.106445,-0.348145,36,-18,-9,3,3,3,-2,-1,14276
0.209085,-0.0977381,2.75522,-29.125,2.8125,-4,0.760254,0.106445,-0.348145,-10,7,8,-17,12,1,58,27,14293
0.346125,-0.40259,2.95184,170.688,-148.875,219.688,1.21338,1.21191,1.87891,-117,-15,-37,-46,-54,-104,36,-69,14402
0.379654,-0.516431,3.03559,84.25,-107.313,145.063,0.783203,1.0166,2.07813,8,-8,-124,-128,-128,-128,38,77,14421
0.39791,-0.560199,3.0621,88.5625,-100.5,113.688,0.638184,1.01611,1.93506,65,0,-108,-99,-86,-94,40,127,14438
0.39791,-0.560199,3.0621,88.5625,-100.5,113.688,0.638184,1.01611,1.93506,34,29,3,-19,7,38,71,15,14455
0.39791,-0.560199,3.0621,88.5625,-100.5,113.688,0.638184,1.01611,1.93506,12,33,86,54,44,61,-21,-50,14472
0.421483,-0.635018,3.10905,61.125,-83.75,100.75,0.20752,0.862793,1.41992,-29,19,27,-47,-3,13,-61,-33,14490
0.424067,-0.651604,3.13204,40.3125,-71.6875,95.1875,0.00341797,0.657227,1.15723,-29,19,27,-47,-3,13,-61,-33,14507
0.424067,-0.651604,3.13204,40.3125,-71.6875,95.1875,0.00341797,0.657227,1.15723,-63,-73,-18,-4,-11,-19,69,-5,14524
0.424067,-0.651604,3.13204,40.3125,-71.6875,95.1875,0.00341797,0.657227,1.15723,39,-66,-23,-1,-5,-21,-4,0,14541
0.418587,-0.67988,-3.1021,32.5625,-56.625,86.6875,-0.269531,0.32666,0.73291,79,12,-23,-56,-22,2,19,44,14558
0.411594,-0.690593,-3.07472,35.75,-45.5,80.8125,-0.355957,0.121094,0.549805,-16,11,-18,-26,26,4,14,8,14575
0.411594,-0.690593,-3.07472,35.75,-45.5,80.8125,-0.355957,0.121094,0.549805,46,29,10,18,7,3,3,-1,14592
0.394906,-0.695302,-3.02329,29.75,-12.9375,51.25,-0.50293,-0.0869141,0.287598,-34,-4,-2,-9,0,4,-35,-14,14608
0.384237,-0.686893,-3.00585,13,-1.25,31.8125,-0.563477,-0.132813,0.239746,52,25,12,3,-37,-26,30,-4,14625
0.384237,-0.686893,-3.00585,13,-1.25,31.8125,-0.563477,-0.132813,0.239746,-55,1,2,61,0,-13,-14,-16,14642
0.355081,-0.63932,-2.98948,-23.4375,40.25,-18.375,-0.645508,-0.204102,0.179199,44,24,6,-15,-29,-6,43,9,14659
0.345915,-0.52456,-3.0366,-17.3125,40.125,-82.4375,-0.42334,0.162109,0.635254,69,-24,-42,-37,-21,-18,-54,-8,14721
0.360832,-0.493138,-3.07045,-7.5625,44.125,-105.063,-0.146484,0.614746,1.11133,-20,-7,5,-63,-20,12,40,10,14737
0.360832,-0.493138,-3.07045,-7.5625,44.125,-105.063,-0.146484,0.614746,1.11133,37,4,44,42,5,6,26,10,14754
0.360832,-0.493138,-3.07045,-7.5625,44.125,-105.063,-0.146484,0.614746,1.11133,-73,64,82,88,32,25,-21,-41,14770
0.368344,-0.41146,3.12526,-63.5,70.1875,-158.375,0.574707,1.40527,1.87402,22,48,27,1,21,45,44,-18,14787
0.345539,-0.358323,3.07489,-119.625,95.8125,-178.625,0.945313,1.73828,2.08252,-29,54,0,40,-23,-28,-34,-16,14805
0.345539,-0.358323,3.07489,-119.625,95.8125,-178.625,0.945313,1.73828,2.08252,-5,-20,-92,-115,-56,-52,27,58,14822
0.345539,-0.358323,3.07489,-119.625,95.8125,-178.625,0.945313,1.73828,2.08252,6,-62,-48,-11,-21,-34,-40,29,14840
0.271863,-0.244463,2.97661,-149.625,118.75,-170.375,0.924316,1.57422,1.84033,-95,-59,21,-10,3,35,-37,-20,14857
0.239773,-0.192953,2.92892,-137.875,117.313,-164.875,0.814453,1.39551,1.65039,-55,-38,57,51,44,52,-22,-38,14875
0.239773,-0.192953,2.92892,-137.875,117.313,-164.875,0.814453,1.39551,1.65039,16,56,35,42,26,22,52,-25,14892
0.239773,-0.192953,2.92892,-137.875,117.313,-164.875,0.814453,1.39551,1.65039,23,39,3,-48,-17,-12,8,16,14908
0.182651,-0.0859699,2.82157,-70.125,85.8125,-94.8125,0.645996,0.760742,0.708984,16,8,-35,-31,-10,-23,-37,5,14925
0.182651,-0.0859699,2.82157,-70.125,85.8125,-94.8125,0.645996,0.760742,0.708984,32,-17,-12,-21,-12,1,-32,5,14942
0.182651,-0.0859699,2.82157,-70.125,85.8125,-94.8125,0.645996,0.760742,0.708984,63,13,20,62,16,-1,46,8,14959
0.180381,-0.0575222,2.7812,-30.5625,56.5,-59.0625,0.472168,0.407227,0.181152,4,-9,9,3,4,-6,-51,-16,14977
0.180837,-0.0621229,2.76585,2.125,3.875,12.4375,0.46582,0.0566406,-0.274902,-66,-17,-14,-42,-11,10,52,-2,15038
0.180837,-0.0621229,2.76585,2.125,3.875,12.4375,0.46582,0.0566406,-0.274902,-1,-15,1,23,6,2,44,-1,15055
0.180837,-0.0621229,2.76585,2.125,3.875,12.4375,0.46582,0.0566406,-0.274902,19,-3,4,1,-12,1,-77,6,15072
0.187193,-0.101081,2.78532,6.4375,-18.8125,39.6875,0.531738,0.0458984,-0.223633,6,-1,-9,0,16,2,-3,17,15089
0.193318,-0.128658,2.80037,15.5625,-31.1875,50.375,0.554688,0.0678711,-0.163574,-20,6,-7,14,-9,-11,54,20,15106
0.200444,-0.161523,2.81963,16,-41.6875,65.75,0.60498,0.182129,0.0170898,33,23,13,13,-6,-16,-56,28,15123
0.200444,-0.161523,2.81963,16,-41.6875,65.75,0.60498,0.182129,0.0170898,13,-23,-39,-60,-19,-16,28,23,15139
0.228161,-0.23979,2.87461,59.875,-84,110.063,0.705566,0.716797,0.887695,-19,-17,-12,-47,-33,-26,-30,-3,15156
0.228161,-0.23979,2.87461,59.875,-84,110.063,0.705566,0.716797,0.887695,22,106,47,16,31,52,-24,-33,15174
0.228161,-0.23979,2.87461,59.875,-84,110.063,0.705566,0.716797,0.887695,119,75,127,127,72,93,-30,-56,15191
0.283499,-0.34359,2.94811,109.563,-120.938,146.625,0.755859,1.06348,1.61523,123,-24,112,127,102,122,-26,-90,15209
0.31279,-0.400609,2.99011,118.813,-122.938,158.938,0.855469,1.17676,1.84961,-128,5,114,127,74,50,-48,-102,15226
0.31279,-0.400609,2.99011,118.813,-122.938,158.938,0.855469,1.17676,1.84961,-122,-48,-32,0,-45,-68,8,-93,15243
0.33537,-0.452805,3.0309,106.563,-110.375,152.25,0.835938,1.09717,1.88623,78,-16,-119,-111,-127,-128,-42,111,15260
0.33537,-0.452805,3.0309,106.563,-110.375,152.25,0.835938,1.09717,1.88623,63,-13,-93,-73,-18,-14,55,68,15276
0.367256,-0.530658,3.09565,80.5,-74.25,109.625,0.629883,1.02734,1.82617,-10,-5,-6,-18,12,28,26,13,15294
0.399089,-0.591681,-3.07574,51.375,-35.0625,92.9375,-0.102051,0.457031,0.91748,60,-6,8,-8,9,0,3,11,15372
0.399089,-0.591681,-3.07574,51.375,-35.0625,92.9375,-0.102051,0.457031,0.91748,23,-7,-19,-9,-14,-12,-14,3,15389
0.406012,-0.605798,-3.01069,72.1875,-20.9375,88.9375,-0.23877,0.149414,0.555664,-114,-2,8,7,2,2,44,-11,15406
0.411007,-0.603078,-2.97932,67.5625,8.625,75.5625,-0.26416,0.130859,0.362305,-16,3,-4,-3,-2,-6,6,14,15424
0.411007,-0.603078,-2.97932,67.5625,8.625,75.5625,-0.26416,0.130859,0.362305,-118,-19,3,30,3,-1,-26,-31,15441
0.393671,-0.568828,-2.91854,14.0625,52.625,49.8125,-0.478027,-0.0805664,0.134277,-1,-21,-24,-43,-13,-3,-23,-11,15458
0.393671,-0.568828,-2.91854,14.0625,52.625,49.8125,-0.478027,-0.0805664,0.134277,-14,13,10,31,9,-4,-77,-6,15475
0.376164,-0.541494,-2.89742,-4.875,58.0625,23,-0.558594,-0.202148,0.103027,-1,5,9,24,10,-13,-22,-22,15491
0.376164,-0.541494,-2.89742,-4.875,58.0625,23,-0.558594,-0.202148,0.103027,22,-11,7,5,10,-8,-17,-3,15509
0.349034,-0.470226,-2.89132,-19.1875,59,-40.3125,-0.646484,-0.254395,0.0673828,-48,19,22,64,-3,10,19,9,15526
0.344891,-0.431189,-2.90723,-23.9375,50,-65.6875,-0.650879,-0.10498,0.111816,-58,-19,-20,2,-24,-9,-7,7,15543
0.344891,-0.431189,-2.90723,-23.9375,50,-65.6875,-0.650879,-0.10498,0.111816,69,4,-10,48,7,-1,3,33,15560
0.366751,-0.374411,-2.9754,5.125,3.8125,-116.75,-0.323242,0.648926,1.0542,29,-38,13,-11,-6,-7,-8,9,15576
0.366751,-0.374411,-2.9754,5.125,3.8125,-116.75,-0.323242,0.648926,1.0542,52,-12,-38,40,11,10,2,7,15593
0.380889,-0.350323,-3.01582,-12.8125,13.4375,-116.563,-0.139648,1.41748,1.53027,37,60,56,-25,-27,16,17,-6,15610
0.380889,-0.350323,-3.01582,-12.8125,13.4375,-116.563,-0.139648,1.41748,1.53027,3,-11,0,23,-9,1,32,-3,15627
0.292237,-0.155289,2.94998,-118.563,44.875,-144.875,0.706055,1.44531,1.40479,127,118,124,87,96,120,13,-58,15734
0.292237,-0.155289,2.94998,-118.563,44.875,-144.875,0.706055,1.44531,1.40479,124,127,127,102,44,74,63,-45,15753
0.25963,-0.115869,2.87267,-50.5625,33.875,-116.313,0.732422,0.583984,0.70166,28,118,48,32,17,9,23,-23,15768
0.25963,-0.115869,2.87267,-50.5625,33.875,-116.313,0.732422,0.583984,0.70166,-58,28,-43,-44,-10,-32,-10,6,15785
0.259753,-0.109069,2.84075,-43.625,34.875,-99.375,0.629883,0.637695,0.466309,13,8,-44,-19,-12,-15,-20,23,15802
0.259753,-0.109069,2.84075,-43.625,34.875,-99.375,0.629883,0.637695,0.466309,-58,-41,-62,-29,-26,-47,-8,34,15820
0.259753,-0.109069,2.84075,-43.625,34.875,-99.375,0.629883,0.637695,0.466309,-38,-75,-61,-40,-16,-26,-61,15,15838
0.241109,-0.104411,2.78526,-19.25,13.375,-42.4375,0.491699,0.209473,-0.00390625,2,-9,6,-8,4,11,-6,-14,15855
0.241109,-0.104411,2.78526,-19.25,13.375,-42.4375,0.491699,0.209473,-0.00390625,17,1,8,6,-15,-1,23,-18,15873
0.245313,-0.124577,2.77712,-6.0625,5.625,-3.6875,0.552246,0.0893555,-0.257324,0,2,13,8,0,3,16,8,15890
0.243424,-0.137054,2.78025,-10.75,4.75,8.9375,0.531738,0.0283203,-0.277832,8,5,6,-2,-4,-5,-15,-15,15906
0.243424,-0.137054,2.78025,-10.75,4.75,8.9375,0.531738,0.0283203,-0.277832,-11,20,-9,3,4,0,73,18,15925
0.246895,-0.17182,2.80049,7.3125,-9.8125,40.375,0.513672,0.101563,-0.185059,64,-10,-12,-11,-15,-13,5,8,15941
0.246895,-0.17182,2.80049,7.3125,-9.8125,40.375,0.513672,0.101563,-0.185059,-50,-28,-4,27,-5,-9,15,11,15958
0.252273,-0.196434,2.81845,11.375,-16.0625,59,0.586914,0.169434,-0.102051,-7,-31,-16,-9,-4,-12,4,14,15976
0.252273,-0.196434,2.81845,11.375,-16.0625,59,0.586914,0.169434,-0.102051,9,17,-14,-47,-25,-10,-6,8,15992
0.283727,-0.295615,2.91925,77.625,-85.8125,150.063,0.734863,0.899414,1.17432,65,-31,14,-19,3,14,-5,-12,16044
0.283727,-0.295615,2.91925,77.625,-85.8125,150.063,0.734863,0.899414,1.17432,17,124,127,127,127,127,19,-52,16062
0.334544,-0.400813,3.00891,115.438,-107.5,168.438,0.855469,1.03174,1.72754,62,55,-5,-2,-3,-39,-9,-33,16080
0.354838,-0.451962,3.05185,102.188,-101.5,158.688,0.833496,1.11084,1.76318,-128,-128,-119,-104,-97,-124,-9,17,16098
0.354838,-0.451962,3.05185,102.188,-101.5,158.688,0.833496,1.11084,1.76318,-2,13,-111,-88,-51,-61,23,91,16115
0.372988,-0.531509,3.11899,63.1875,-77.375,111.688,0.666504,0.981445,1.82031,54,50,-84,-74,-17,-11,-26,58,16132
0.391598,-0.551601,3.13979,67,-68.375,93.625,0.507324,0.98877,1.64404,19,-19,-26,-18,4,7,-29,28,16149
0.391598,-0.551601,3.13979,67,-68.375,93.625,0.507324,0.98877,1.64404,53,-1,50,41,-1,29,-71,-32,16167
0.391598,-0.551601,3.13979,67,-68.375,93.625,0.507324,0.98877,1.64404,-33,14,62,21,28,38,26,-43,16183
0.391598,-0.551601,3.13979,67,-68.375,93.625,0.507324,0.98877,1.64404,-14,-8,5,8,3,3,5,0,16200
0.417947,-0.5781,-3.09022,36.0625,-40.375,67.5,-0.146973,0.543457,0.950684,-42,-18,-15,-17,-4,-14,6,1,16217
0.417947,-0.5781,-3.09022,36.0625,-40.375,67.5,-0.146973,0.543457,0.950684,-22,-26,-16,-4,-23,-9,-27,-8,16234
0.420878,-0.583448,-3.05507,28.3125,-28.0625,57.25,-0.365723,0.187988,0.541016,26,-3,-2,-8,4,9,30,9,16251
0.420987,-0.584072,-3.03874,35.25,-21.5625,45.8125,-0.399414,0.00878906,0.394043,2,-6,-3,-8,1,7,8,-6,16269
0.420987,-0.584072,-3.03874,35.25,-21.5625,45.8125,-0.399414,0.00878906,0.394043,-29,-6,15,30,7,-3,-10,0,16286
0.414684,-0.569699,-3.01699,11.3125,1.375,12.5625,-0.476074,-0.169922,0.21582,26,25,18,29,-3,-4,10,9,16303
0.410834,-0.417334,-3.13818,-19.5,29.1875,-124.188,-0.258301,0.634766,1.10693,-104,-26,-17,-17,-2,-2,36,-22,16417
0.410834,-0.417334,-3.13818,-19.5,29.1875,-124.188,-0.258301,0.634766,1.10693,-21,39,54,20,-2,28,-15,-21,16434
0.416373,-0.383518,3.10332,-38.1875,35.5625,-132.375,0.0249023,1.15576,1.47363,-4,53,37,42,25,23,-29,-54,16453
0.416373,-0.383518,3.10332,-38.1875,35.5625,-132.375,0.0249023,1.15576,1.47363,36,10,-11,19,-3,-21,-11,23,16469
0.373454,-0.299645,3.01941,-130.563,77.25,-150.813,0.681152,1.56494,1.88379,36,10,-11,19,-3,-21,-11,23,16487
0.373454,-0.299645,3.01941,-130.563,77.25,-150.813,0.681152,1.56494,1.88379,-49,-38,-28,21,-39,-41,-17,21,16505
0.337753,-0.25201,2.97645,-135.875,86.875,-158.875,0.721191,1.45703,1.83105,33,-53,-57,-71,-32,-17,-9,17,16521
0.337753,-0.25201,2.97645,-135.875,86.875,-158.875,0.721191,1.45703,1.83105,-10,4,28,4,16,15,20,-17,16540
0.337753,-0.25201,2.97645,-135.875,86.875,-158.875,0.721191,1.45703,1.83105,-8,30,35,-4,7,22,3,-24,16557
0.279608,-0.116078,2.85588,-66.1875,95.625,-126.625,0.641113,1.32861,1.16846,61,38,8,40,-4,-5,15,-1,16574
0.279608,-0.116078,2.85588,-66.1875,95.625,-126.625,0.641113,1.32861,1.16846,58,39,-4,-44,3,13,79,7,16591
0.277763,-0.0652731,2.80472,-29.5,63.25,-84.125,0.553711,0.811035,0.632324,29,12,5,26,10,9,49,14,16608
0.281416,-0.0543562,2.78702,-23.4375,50.4375,-65.375,0.538086,0.594238,0.458496,54,25,6,18,3,-10,-13,3,16626
0.283559,-0.0479454,2.77331,-17.375,36.5,-50.5625,0.455566,0.411133,0.294922,-22,-12,-9,-13,0,-2,7,3,16642
0.28761,-0.0467738,2.76309,-4.5625,21.4375,-36,0.411133,0.278809,0.178711,-32,-9,-9,-11,-20,-20,5,12,16659
0.29267,-0.0508314,2.75589,1.875,7.75,-23.125,0.377441,0.205078,0.081543,46,-4,-4,5,-1,3,57,30,16676
0.30536,-0.0768635,2.75147,10.25,-17.1875,4.4375,0.416992,0.119629,-0.0366211,-73,4,10,25,15,-6,-48,-6,16729
0.307414,-0.0952239,2.75373,-0.1875,-18.75,13.4375,0.444824,0.0830078,-0.0537109,70,0,-2,-15,-29,12,60,8,16746
0.306437,-0.114224,2.75902,-8.1875,-17.375,22.0625,0.456055,0.0830078,-0.0595703,-6,-14,-13,-6,4,1,10,-17,16762
0.306437,-0.114224,2.75902,-8.1875,-17.375,22.0625,0.456055,0.0830078,-0.0595703,-12,-10,-3,4,-3,-4,32,14,16780
0.306437,-0.114224,2.75902,-8.1875,-17.375,22.0625,0.456055,0.0830078,-0.0595703,-66,-13,17,92,-12,-16,-19,-9,16796
0.304513,-0.160014,2.77685,-6.1875,-29.8125,41.375,0.460449,0.160645,0.0195313,60,-13,-20,-7,-4,-15,-43,8,16813
0.306106,-0.189287,2.79139,-3.0625,-35.9375,57,0.536621,0.300781,0.23584,13,-28,-41,-111,-24,-37,4,25,16830
0.314917,-0.222683,2.81235,13.9375,-44.4375,81.3125,0.597168,0.559082,0.623535,72,11,5,17,14,25,-19,-10,16847
0.329906,-0.258531,2.84204,54.375,-65.9375,111.063,0.62207,0.897949,1.03809,72,11,5,17,14,25,-19,-10,16864
0.362564,-0.31142,2.87641,112.125,-107.5,142.438,0.671875,1.08594,1.34473,-42,101,117,95,65,56,11,-47,16882
0.362564,-0.31142,2.87641,112.125,-107.5,142.438,0.671875,1.08594,1.34473,35,-24,124,105,51,81,-9,-47,16900
0.422546,-0.407956,2.94796,95.25,-70.8125,126.938,0.950684,1.26172,1.61719,35,-24,124,105,51,81,-9,-47,16917
0.436357,-0.440659,2.98162,72.9375,-51.6875,123.313,0.665527,1.22607,1.68506,-128,-127,-56,-53,-39,-73,50,-64,16933
0.436357,-0.440659,2.98162,72.9375,-51.6875,123.313,0.665527,1.22607,1.68506,-20,6,-128,-123,-128,-128,45,122,16949
0.442166,-0.468445,3.01405,53,-42.5,114.875,0.507324,1.1123,1.65771,-50,7,-95,-62,-38,-42,-25,68,16966
0.448957,-0.493465,3.04453,56.75,-40.6875,106.688,0.299805,0.992676,1.60449,46,-48,-63,-3,16,13,-12,44,16983
0.463489,-0.553004,-3.14109,45.5625,-12.625,105.063,-0.11377,0.549316,0.967773,-82,-19,7,-3,-4,6,-12,-16,17053
0.457482,-0.565722,-3.10368,39.4375,-3.0625,102.625,-0.251465,0.393555,0.785156,-14,8,-6,-41,-12,-6,7,7,17071
0.447321,-0.563351,-3.06787,30.5,3.375,91.4375,-0.351074,0.210449,0.596191,-14,8,-6,-41,-12,-6,7,7,17089
0.436328,-0.558813,-3.03482,28.625,8.125,78.125,-0.39502,0.0473633,0.469238,30,20,-7,-27,8,5,-6,-10,17106
0.427199,-0.552017,-3.00717,25.0625,13.1875,61.5625,-0.383789,-0.0205078,0.333496,-2,5,-3,-7,8,0,1,7,17121
0.427199,-0.552017,-3.00717,25.0625,13.1875,61.5625,-0.383789,-0.0205078,0.333496,-81,-8,0,32,3,-5,18,-12,17138
0.401172,-0.526724,-2.97223,-6.875,16.5625,19.875,-0.507324,-0.148438,0.220215,81,1,-4,-17,1,1,4,9,17155
0.401172,-0.526724,-2.97223,-6.875,16.5625,19.875,-0.507324,-0.148438,0.220215,16,-6,-16,-11,16,-5,-18,12,17173
0.390455,-0.510673,-2.96773,-9.8125,12.3125,-2.0625,-0.505859,-0.182617,0.203125,0,17,-1,0,-13,9,-31,-8,17190
0.383244,-0.492067,-2.97323,-16.0625,14,-27.9375,-0.40332,-0.129395,0.221191,-57,-11,-21,8,-21,-16,63,16,17206
0.379634,-0.467496,-2.98926,-23.4375,19.1875,-56.4375,-0.389648,-0.0400391,0.276855,29,7,-3,9,-15,-7,-60,-21,17222
0.379802,-0.439213,-3.01317,-23.5625,18.1875,-76.6875,-0.394531,0.0473633,0.385742,10,11,23,65,-12,-8,-13,-7,17239
0.388957,-0.418563,-3.04796,-15.875,10.6875,-101.688,-0.337402,0.352539,0.786133,42,-7,26,11,11,0,-61,4,17256
0.403609,-0.398542,-3.09047,-11.25,-3.4375,-117.5,-0.296387,0.859375,1.29883,-32,-38,3,54,14,21,2,-18,17274
0.403609,-0.398542,-3.09047,-11.25,-3.4375,-117.5,-0.296387,0.859375,1.29883,18,8,-18,-10,25,17,-17,-32,17291
0.418354,-0.381356,-3.13597,-15.0625,-13.1875,-122.25,0.0595703,1.28906,1.75586,6,46,57,12,8,2,29,5,17307
0.352157,-0.25552,2.9279,-122.625,49.9375,-166.625,0.791504,1.70117,1.56396,55,-18,-44,-42,-5,-25,35,36,17378
0.33042,-0.221277,2.88356,-105.625,58.5,-148.688,0.750488,1.26904,1.27246,-32,-45,-17,-27,-9,-20,9,14,17395
0.33042,-0.221277,2.88356,-105.625,58.5,-148.688,0.750488,1.26904,1.27246,-107,-88,22,13,-6,-10,-51,-24,17413
0.313729,-0.187416,2.84336,-81.375,63.5,-137.875,0.616211,0.955078,0.975586,3,-29,29,-1,18,36,-13,-9,17429
0.300801,-0.15532,2.80947,-62.5,65.375,-119.438,0.509766,0.76123,0.669922,81,52,47,31,22,32,-8,-27,17447
0.29325,-0.134076,2.78136,-61.5625,63.8125,-98.6875,0.490723,0.563965,0.432617,113,97,58,5,23,46,46,-7,17464
0.282587,-0.11595,2.75963,-60.5,57.6875,-78.4375,0.411133,0.414063,0.266113,57,101,71,46,14,45,-5,-20,17481
0.274682,-0.103494,2.7453,-43,50,-55.125,0.416016,0.27002,0.078125,16,68,57,34,21,19,-14,-23,17499
0.269755,-0.0948703,2.73528,-28.375,43.5,-40.8125,0.408691,0.154297,-0.0708008,-31,6,1,-4,-22,-31,11,13,17517
0.267914,-0.0912107,2.72929,-15.75,32.625,-25.75,0.391113,0.0834961,-0.187988,-44,-78,-68,-50,-23,-33,16,24,17535
0.267914,-0.0912107,2.72929,-15.75,32.625,-25.75,0.391113,0.0834961,-0.187988,-37,-56,-41,-29,-18,-25,-20,19,17552
0.267885,-0.0937671,2.72851,-9.375,22.25,-7.5625,0.431152,0.0664063,-0.26416,2,-19,-38,-31,-12,-11,21,21,17569
0.267623,-0.102403,2.73158,-10.25,11,7.125,0.46875,0.0888672,-0.23291,-12,-22,-11,-37,2,-5,-37,-6,17586
0.264562,-0.114653,2.73802,-18.0625,4.9375,18.5625,0.5,0.126953,-0.160156,-29,-18,-16,-21,-10,-1,8,-4,17603
0.261475,-0.12868,2.75223,-12.3125,5,41.5,0.501465,0.110352,-0.0317383,-40,16,-9,-4,-1,-5,-13,-18,17621
0.262883,-0.145242,2.76875,1.125,-0.875,50.1875,0.516113,0.169922,0.105469,19,-18,-34,-7,-9,-7,21,9,17637
0.294483,-0.194968,2.83987,40,-26.0625,94.5,0.311523,0.769531,1.49463,77,-5,52,43,37,29,11,-12,17712
0.314237,-0.222402,2.87271,71.9375,-48.375,112.5,0.345703,0.798828,1.67578,31,-40,9,68,37,36,-16,-24,17729
0.335409,-0.250316,2.90387,78.125,-48.3125,108.938,0.444336,0.808594,1.70605,-64,78,127,109,46,52,31,-46,17746
0.350951,-0.269051,2.92835,41.25,-37.125,91.0625,0.364746,0.952148,1.70215,-54,34,15,25,-1,-10,16,-37,17762
0.350951,-0.269051,2.92835,41.25,-37.125,91.0625,0.364746,0.952148,1.70215,-46,-51,-46,-46,-38,-53,0,-25,17779
0.349982,-0.279846,2.95455,3.4375,-22.125,89.375,0.265137,0.85791,1.75488,-46,-51,-46,-46,-38,-53,0,-25,17796
0.351195,-0.289916,2.98092,11.875,-22.4375,89.375,0.224121,0.817871,1.67676,-81,-40,-121,-96,-65,-86,0,32,17814
0.355369,-0.298525,3.00561,16.8125,-22.75,85.3125,0.133301,0.797363,1.48438,70,2,-107,-68,-34,-59,-19,53,17832
0.359085,-0.305962,3.02994,20,-22.875,83.375,-0.00244141,0.640137,1.21582,31,-13,-34,-29,-12,0,4,34,17849
0.360281,-0.312006,3.05459,19.375,-19.5,81.25,-0.0825195,0.466797,0.999023,6,-6,17,8,6,14,-10,3,17866
0.360281,-0.312006,3.05459,19.375,-19.5,81.25,-0.0825195,0.466797,0.999023,1,-9,26,15,7,19,8,-7,17883
0.360979,-0.317181,3.07898,20.8125,-18.1875,78.5625,-0.150391,0.365723,0.837891,0,2,22,22,13,16,21,-9,17900
0.359465,-0.322806,3.10356,18.9375,-17.875,77.875,-0.170898,0.253418,0.709473,-2,7,7,11,10,5,0,-10,17916
0.356567,-0.328969,3.12704,21.25,-19.9375,72.625,-0.196777,0.0976563,0.59668,14,13,-2,0,1,0,-13,-1,17933
0.356339,-0.336367,-3.13605,28.4375,-22.25,62.1875,-0.180664,0.00927734,0.463867,9,9,6,7,3,5,-7,-2,17951
0.358662,-0.341458,-3.12163,32.75,-17.4375,43.5,-0.152832,-0.0732422,0.34082,5,-7,-1,-4,0,2,5,-7,17969
0.293687,-0.261441,-3.13854,-23.6875,24,-67.5625,-0.243164,0.0683594,0.495117,21,16,-2,-10,-8,0,49,5,18084
0.294064,-0.227908,3.11615,-35.8125,35.25,-89.25,-0.291992,0.538574,0.948242,14,23,13,6,-3,-3,-10,6,18101
0.296873,-0.195959,3.08554,-49.9375,28.0625,-89.1875,-0.240723,1.00586,1.37891,3,7,2,-8,-4,-4,-20,1,18119
0.295575,-0.174424,3.05771,-54.6875,10.9375,-78.4375,-0.0844727,1.01758,1.60254,2,17,2,-27,-1,-5,-1,3,18135
0.295575,-0.174424,3.05771,-54.6875,10.9375,-78.4375,-0.0844727,1.01758,1.60254,-6,-17,-15,-14,-7,-3,-27,-1,18154
0.295316,-0.163373,3.03018,-50.75,9.0625,-77.375,0.285156,1.02344,1.5918,3,-11,-6,-7,-9,-7,-41,-5,18171
0.301725,-0.153361,2.99694,-35.875,9.1875,-94.75,0.382324,1.06201,1.54395,-10,-8,-3,7,0,1,-16,-4,18188
0.310283,-0.1432,2.96182,-38.1875,6.25,-98.8125,0.348145,1.20996,1.56885,-14,-26,6,16,6,5,18,2,18206
0.314521,-0.138504,2.92979,-44,-3.3125,-88.1875,0.390137,1.13965,1.53955,-1,13,22,4,6,6,26,-9,18223
0.314688,-0.13987,2.90005,-45.5,-14.625,-78.875,0.429688,0.965332,1.40918,3,28,16,14,5,3,7,1,18240
0.319593,-0.148003,2.874,-25.1875,-27.125,-64.5,0.44873,0.820801,1.18555,7,13,-6,-1,-4,-1,4,1,18258
0.319593,-0.148003,2.874,-25.1875,-27.125,-64.5,0.44873,0.820801,1.18555,15,10,-13,-12,-4,-3,8,6,18275
0.34497,-0.179163,2.82926,11.5625,-37.6875,-48.5625,0.53418,0.520508,0.70459,4,3,-10,-7,-6,-8,13,1,18293
0.359308,-0.193396,2.80994,17.1875,-34.25,-42.6875,0.456543,0.40332,0.505371,-2,0,-5,-5,-4,-4,1,3,18310
0.359308,-0.193396,2.80994,17.1875,-34.25,-42.6875,0.456543,0.40332,0.505371,-31,-17,7,6,3,7,-8,-11,18328
0.371542,-0.205924,2.79362,18.6875,-29.375,-36.4375,0.397949,0.246582,0.337402,10,19,23,18,11,17,16,-6,18344
0.424564,-0.250617,2.75317,11.625,0.375,-2.875,0.415039,0.132324,-0.143066,-1,-13,-17,-10,-6,-6,-10,4,18448
0.424564,-0.250617,2.75317,11.625,0.375,-2.875,0.415039,0.132324,-0.143066,-8,5,-11,-7,1,1,-8,0,18466
0.428022,-0.265394,2.77059,-2.8125,28.125,28.1875,0.489746,0.154297,-0.0600586,4,-9,-7,-6,6,0,-14,-6,18483
0.426086,-0.27375,2.79031,0.3125,27.75,49.9375,0.512207,0.239746,0.217285,7,-12,7,9,-9,-1,-1,-3,18501
0.431465,-0.286534,2.81687,13.9375,20,78.1875,0.600586,0.67627,0.6875,-12,-3,1,-5,-20,1,-8,-6,18518
0.432434,-0.302237,2.8528,26.0625,5.125,108.438,0.696289,0.933105,1.07178,-42,-15,-2,-3,33,-10,2,15,18535
0.432434,-0.302237,2.8528,26.0625,5.125,108.438,0.696289,0.933105,1.07178,-16,22,2,34,20,1,3,-3,18552
0.443031,-0.327061,2.89134,62.625,-19.1875,125.5,0.586426,0.80127,1.44824,36,-1,27,-7,20,16,-11,-41,18570
0.472519,-0.361423,2.93185,122.875,-40.625,142.25,0.612305,0.825684,1.51074,31,-28,-12,18,1,6,-10,-38,18586
0.504375,-0.398641,2.96529,125.5,-53.8125,129.75,0.652344,0.970215,1.56543,10,-18,22,30,-5,5,-3,-12,18603
0.521471,-0.431515,2.99757,85.3125,-42.4375,121.75,0.71582,0.991211,1.6001,6,-9,-41,-21,-28,-29,7,38,18620
0.522493,-0.460029,3.03136,43.4375,-30.6875,118.688,0.654785,0.984863,1.58057,-6,-13,-16,-30,-24,-18,1,30,18637
0.522493,-0.460029,3.03136,43.4375,-30.6875,118.688,0.654785,0.984863,1.58057,14,-4,1,-14,-9,1,-4,6,18654
0.518822,-0.48749,3.06501,32.8125,-31.0625,117.438,0.521973,0.936523,1.52539,3,27,31,30,25,29,-8,-22,18671
0.516533,-0.514486,3.09757,37.5625,-33.5,113.313,0.361328,0.806152,1.34424,-13,5,29,16,9,10,-2,-15,18688
0.519152,-0.539279,3.1273,50.6875,-33.0625,103.625,0.197266,0.650391,1.14063,-16,15,12,-4,-19,-9,-10,-11,18705
0.516379,-0.584015,-3.04622,17.875,-21.0625,81.0625,-0.214355,0.180664,0.481934,24,9,-5,-7,45,11,0,5,18780
0.504239,-0.592569,-3.02187,14.5625,-19.375,69.0625,-0.290527,-0.0405273,0.305176,1,11,-4,-3,-9,-14,1,-2,18798
0.493764,-0.598038,-3.00259,16.625,-17.25,49.625,-0.337891,-0.1875,0.223145,-9,-9,7,5,-6,1,-12,-2,18816
0.493764,-0.598038,-3.00259,16.625,-17.25,49.625,-0.337891,-0.1875,0.223145,10,-16,-3,4,9,15,2,2,18832
0.485936,-0.598469,-2.9939,4.875,-18,22.625,-0.396484,-0.17334,0.181641,-6,5,-4,-8,-36,-16,3,-1,18849
0.4794,-0.59424,-2.99569,-10.375,-22.6875,-1.8125,-0.509277,-0.148926,0.147461,-1,5,-12,-12,-9,-8,1,0,18866
0.472783,-0.586415,-3.0054,-21.375,-24.1875,-23.5,-0.565918,-0.192383,0.12793,-9,-7,-4,-7,-10,-2,0,5,18883
0.46823,-0.571009,-3.02179,-23.875,-15,-47.3125,-0.541504,-0.176758,0.23584,1,0,-22,-16,-9,-5,-25,-2,18900
0.478908,-0.546149,-3.04967,-6,-7.5,-76.3125,-0.484375,0.0883789,0.408203,-11,-28,2,35,2,-8,4,-1,18917
0.478908,-0.546149,-3.04967,-6,-7.5,-76.3125,-0.484375,0.0883789,0.408203,1,-5,-13,-14,5,2,-1,4,18934
0.492739,-0.519974,-3.08672,-16.25,11.0625,-108.125,-0.419434,0.567383,0.816895,13,-1,2,14,37,17,9,1,18951
0.50337,-0.483366,-3.12815,-33.625,28.5625,-129.625,-0.228027,1.26074,1.36182,15,-48,12,43,0,-1,4,3,18968
0.502217,-0.445167,3.11129,-66.75,32.5,-141.563,0.172852,1.37695,1.59082,15,-48,12,43,0,-1,4,3,18986
0.502217,-0.445167,3.11129,-66.75,32.5,-141.563,0.172852,1.37695,1.59082,-123,33,-10,-1,0,6,-6,-14,19003
0.483635,-0.396663,3.07316,-104.563,73.6875,-149.5,0.705566,1.39795,1.76025,91,93,35,18,2,10,1,-45,19019
0.469527,-0.336943,3.02227,-99.4375,88.875,-196.25,0.654297,1.41895,1.8877,60,9,-39,-43,-26,-32,0,34,19036
0.36555,-0.102552,2.84294,-122.75,104.313,-148.125,0.577148,1.10791,1.21045,30,40,12,8,4,6,7,-7,19106
0.338574,-0.0590037,2.81319,-92,95.6875,-125.313,0.541504,0.811523,0.929688,16,39,-17,-16,-12,-11,7,5,19123
0.321214,-0.0217122,2.78457,-59.25,82.4375,-114.5,0.484375,0.606934,0.671387,-4,0,-5,-10,-5,-8,4,6,19140
0.316575,-0.000288449,2.75926,-35.4375,70.6875,-99.375,0.527832,0.465332,0.40625,-5,-8,-2,-4,2,5,-8,-3,19157
0.316575,-0.000288449,2.75926,-35.4375,70.6875,-99.375,0.527832,0.465332,0.40625,-6,-14,-8,-9,-6,-13,-21,4,19175
0.314206,0.0171669,2.73777,-29.125,64.6875,-86.1875,0.540527,0.427734,0.244629,-10,-22,-15,-12,-6,-12,11,7,19191
0.311848,0.0306902,2.72273,-27.3125,57.1875,-64.25,0.504883,0.36084,0.0810547,0,-2,0,-3,-1,-2,-9,-4,19209
0.310921,0.0393681,2.71388,-14.375,47.875,-42.875,0.494141,0.175781,-0.0541992,-1,-5,-1,0,1,0,6,0,19226
0.312666,0.0438987,2.70856,-1.6875,41.6875,-29.5625,0.524902,0.0629883,-0.154297,1,0,2,-1,5,5,7,-1,19243
0.316523,0.045522,2.70703,1.3125,38.3125,-17.6875,0.552246,0.0898438,-0.198242,-1,-1,1,3,1,7,5,-4,19260
0.323508,0.0410773,2.71116,4.5625,28.6875,2.3125,0.584473,0.161621,-0.203613,4,9,-1,0,-1,9,-16,-5,19277
0.323508,0.0410773,2.71116,4.5625,28.6875,2.3125,0.584473,0.161621,-0.203613,14,13,-4,-4,-4,-6,0,4,19295
0.331829,0.0285146,2.7214,7.0625,16.75,24.625,0.644531,0.183594,-0.154785,21,35,-3,-5,0,-2,-25,0,19312
0.339814,0.00880832,2.73699,11.6875,6.4375,44.6875,0.695313,0.119629,-0.0966797,5,8,18,5,-4,-6,11,9,19328
0.348284,-0.0152831,2.75813,10.625,0.9375,64,0.705566,0.279297,0.204102,-5,-4,-30,-16,-2,-1,-9,-2,19345
0.364008,-0.047648,2.7861,18.5,-16.9375,93.125,0.677734,0.660645,0.601563,-8,-10,-17,-11,-11,-10,1,4,19362
0.522065,-0.357649,2.97239,115.375,-135.5,198.875,0.65332,1.28369,1.91016,-128,-95,-31,-46,-90,-116,32,-81,19469
0.538859,-0.429312,3.0114,89.625,-130.313,196.688,0.640625,1.24365,1.94287,-128,-128,-103,-102,-128,-128,52,30,19487
0.538859,-0.429312,3.0114,89.625,-130.313,196.688,0.640625,1.24365,1.94287,118,-83,-116,-119,-127,-128,12,117,19504
0.557563,-0.559971,3.07566,69.625,-124.563,162.563,0.383301,0.989258,1.64746,38,-5,-50,-31,4,21,-38,20,19521
0.557563,-0.559971,3.07566,69.625,-124.563,162.563,0.383301,0.989258,1.64746,-37,42,44,41,23,35,-21,-22,19539
0.566105,-0.612984,3.10051,63,-108.688,139.188,0.160156,0.943848,1.36572,-37,42,44,41,23,35,-21,-22,19556
0.566105,-0.612984,3.10051,63,-108.688,139.188,0.160156,0.943848,1.36572,-49,7,52,47,31,23,-16,-39,19572
0.569015,-0.660911,3.12413,46.6875,-99.8125,129.5,-0.111816,0.865723,1.1001,-8,-1,12,13,9,12,-4,-25,19589
0.56433,-0.706338,-3.13248,33.9375,-90.125,128.188,-0.227051,0.601074,0.827148,23,-34,12,19,17,-2,1,-11,19605
0.554188,-0.747006,-3.10233,29,-75.4375,122.5,-0.285156,0.371094,0.65332,27,-25,0,-3,-7,-12,-4,5,19622
0.554188,-0.747006,-3.10233,29,-75.4375,122.5,-0.285156,0.371094,0.65332,-2,-5,-9,-10,-9,-9,-11,3,19639
0.536915,-0.816335,-3.03065,40.9375,-44.625,57,-0.601074,-0.0273438,0.295898,-12,3,1,-1,-16,6,-16,-3,19656
0.536915,-0.816335,-3.03065,40.9375,-44.625,57,-0.601074,-0.0273438,0.295898,4,1,1,-2,1,-1,-6,-2,19672
0.535469,-0.810457,-3.02177,21.1875,-15.4375,21.375,-0.690918,-0.0356445,0.220703,0,5,0,0,3,-3,0,1,19689
0.5284,-0.789944,-3.01808,-4.5,13.25,-9.5,-0.760254,-0.0859375,0.191895,-1,-3,-6,-9,-11,-7,11,4,19706
0.520805,-0.757601,-3.0227,-20.625,28.3125,-39.125,-0.828613,-0.103027,0.255371,7,5,-19,-6,-1,-5,7,4,19723
0.548387,-0.60744,-3.09098,-13.4375,80.5625,-130.563,-0.457031,0.570313,0.86377,46,-52,-3,-9,2,-13,-12,13,19786
0.557393,-0.542899,-3.12542,-32.1875,99,-155.063,-0.212402,1.20117,1.40723,-28,-94,37,-77,-21,2,-15,-2,19803
0.557393,-0.542899,-3.12542,-32.1875,99,-155.063,-0.212402,1.20117,1.40723,-77,-20,100,37,32,31,2,-7,19821
0.561185,-0.47557,3.11891,-47.0625,101.313,-175.938,0.196777,1.2959,1.64893,-115,127,46,66,27,40,-21,-92,19838
0.55028,-0.395384,3.0794,-83.3125,137.25,-203.5,0.604004,1.45068,1.82715,79,112,102,127,79,108,-17,-128,19856
0.55028,-0.395384,3.0794,-83.3125,137.25,-203.5,0.604004,1.45068,1.82715,7,27,-128,-128,-114,-128,52,127,19873
0.509642,-0.221317,2.98121,-107.063,148.563,-242.688,0.640137,1.94678,2.08154,-122,-116,-122,-85,-36,-31,-42,13,19890
0.46561,-0.143008,2.94084,-147.25,144.688,-205.75,0.828613,1.92578,1.95313,-128,-128,27,29,56,83,-58,-101,19907
0.417577,-0.0797285,2.90487,-160.188,131.75,-174.188,0.850098,1.44873,1.60986,-47,-83,127,127,126,126,-40,-126,19923
0.378911,-0.0239131,2.87086,-124.188,120.75,-156.188,0.715332,1.01172,1.22021,127,127,125,127,86,65,28,-90,19941
0.35368,0.0239293,2.83735,-80.4375,104.375,-143.063,0.629395,0.845215,0.927734,-25,48,-128,-128,-121,-128,22,97,19958
0.35368,0.0239293,2.83735,-80.4375,104.375,-143.063,0.629395,0.845215,0.927734,-45,-83,-116,-87,-51,-54,-4,53,19977
0.330153,0.0629314,2.80758,-72.3125,88.0625,-122.375,0.654785,0.744629,0.603027,3,-38,-7,1,5,13,-16,-1,19994
0.316329,0.0812146,2.7842,-61.1875,72.8125,-96.6875,0.636719,0.526367,0.366211,15,2,6,0,-2,-2,-8,-3,20010
0.305994,0.0930884,2.76565,-45.6875,52.3125,-74.25,0.534668,0.366211,0.141113,-8,-18,0,4,6,12,-14,-8,20027
0.302693,0.0975228,2.75366,-21.5,34.0625,-48.25,0.496582,0.219238,-0.050293,5,-5,3,3,0,4,6,-1,20044
0.334067,0.0261255,2.76543,6.3125,-19.875,38.625,0.632324,0.222168,-0.124512,-10,-14,5,11,2,4,4,2,20148
0.340635,-0.00617574,2.78103,3.8125,-31.875,58.1875,0.627441,0.208984,-0.0229492,-8,-6,10,4,-1,0,-20,-4,20166
0.345607,-0.043031,2.8014,3.375,-38.875,76.3125,0.64209,0.256348,0.213379,7,20,13,6,3,-4,7,11,20182
0.351705,-0.0761756,2.82799,15.6875,-54.375,100.938,0.606445,0.606445,0.614258,-2,1,-41,-22,-14,-18,8,4,20200
0.351705,-0.0761756,2.82799,15.6875,-54.375,100.938,0.606445,0.606445,0.614258,2,-4,-75,-26,-20,-21,-13,9,20217
0.36641,-0.124528,2.86037,41.8125,-90.0625,133.25,0.617188,0.98584,1.06006,-36,-8,-67,-64,-49,-60,0,38,20234
0.392416,-0.190672,2.89372,83.4375,-137.75,157.688,0.515625,0.977051,1.46045,127,77,127,127,127,127,-21,-88,20252
0.430793,-0.267785,2.9313,130.75,-159.125,185.125,0.637207,1.0459,1.71875,75,-34,114,112,127,117,10,-64,20269
0.468181,-0.346841,2.96807,133.375,-162.188,191.688,0.644043,1.3042,1.82227,-128,10,24,0,-7,-43,25,-110,20286
0.490605,-0.423537,3.00567,101.188,-152.313,193.063,0.691406,1.18115,1.78174,-31,-7,-120,-127,-126,-128,19,32,20304
0.497676,-0.489004,3.03924,60.1875,-130.5,169.688,0.658203,1.17871,1.84277,77,-41,-125,-128,-86,-101,-1,116,20320
0.497676,-0.489004,3.03924,60.1875,-130.5,169.688,0.658203,1.17871,1.84277,3,-29,-43,-35,-16,-13,-4,37,20338
0.50102,-0.546922,3.06881,50.25,-121.188,151,0.467773,1.13379,1.83691,-36,-22,10,16,4,14,-5,-1,20356
0.509331,-0.601017,3.09587,65,-116.563,139.625,0.291992,0.999023,1.63232,-3,-12,35,15,14,22,-7,-15,20372
0.519,-0.648074,3.12066,67.3125,-100.625,124.438,0.180664,0.918457,1.3208,-3,-12,35,15,14,22,-7,-15,20389
0.519076,-0.68852,-3.13701,43.5625,-84.5,115.875,-0.00927734,0.776855,1.07813,10,-12,42,36,21,20,-7,-27,20406
0.487607,-0.774012,-3.04769,35.9375,-59.1875,94.375,-0.429199,0.15918,0.544922,-1,3,-3,-9,-12,-2,-9,2,20459
0.487607,-0.774012,-3.04769,35.9375,-59.1875,94.375,-0.429199,0.15918,0.544922,-12,3,20,-3,8,-3,-1,0,20475
0.48466,-0.789118,-3.0231,48.625,-55.5,77.5,-0.514648,0.034668,0.379883,8,31,1,-6,-11,-3,1,-2,20493
0.483553,-0.797606,-3.00363,45.625,-39.0625,54.5,-0.486816,-0.0463867,0.307617,5,-3,1,-7,-3,-1,-3,-1,20510
0.479064,-0.794663,-2.99112,20.3125,-13.0625,26.375,-0.477051,-0.0454102,0.239258,1,2,0,1,0,-1,0,-1,20528
0.479064,-0.794663,-2.99112,20.3125,-13.0625,26.375,-0.477051,-0.0454102,0.239258,1,4,11,8,-1,1,2,2,20545
0.469985,-0.777821,-2.98722,-10.75,10.125,-4.9375,-0.555176,-0.0424805,0.265625,-7,-16,-8,-2,0,-2,-3,-2,20561
0.462467,-0.750093,-2.99329,-21.9375,23.75,-38.375,-0.647461,-0.130371,0.26123,-3,8,12,0,-3,-2,-3,-1,20579
0.462467,-0.750093,-2.99329,-21.9375,23.75,-38.375,-0.647461,-0.130371,0.26123,-7,10,-13,-10,-2,-3,0,0,20595
0.474041,-0.667591,-3.03676,-12.5,46.5625,-94.0625,-0.553223,0.0541992,0.352539,-6,-29,-26,-19,-3,-1,2,2,20613
0.482419,-0.624094,-3.06915,-32.25,65.375,-117.188,-0.433594,0.313965,0.576172,11,7,-1,8,-5,-8,1,5,20630
0.482983,-0.572556,-3.1078,-63.125,73,-139.75,-0.389648,0.766113,1.14355,31,-49,77,-8,-1,-1,0,5,20648
0.479661,-0.524944,3.13371,-78,59.5,-141.938,-0.0727539,1.25684,1.55322,-23,-14,85,14,16,18,-5,-11,20665
0.479661,-0.524944,3.13371,-78,59.5,-141.938,-0.0727539,1.25684,1.55322,55,25,50,15,19,20,13,-9,20682
0.424475,-0.413155,3.05823,-145.875,116.563,-169.313,0.858887,1.4668,1.97412,-128,28,-28,-5,2,8,-17,-53,20700
0.424475,-0.413155,3.05823,-145.875,116.563,-169.313,0.858887,1.4668,1.97412,127,124,67,84,28,25,7,-25,20717
0.29272,-0.0739907,2.843,-48.5625,104.063,-117.625,0.594238,0.501953,0.696289,-5,-9,-20,-14,-9,-14,16,3,20822
0.29272,-0.0739907,2.843,-48.5625,104.063,-117.625,0.594238,0.501953,0.696289,-3,-6,-7,-7,-5,-2,-5,-3,20839
0.284062,-0.034461,2.81653,-32.875,96.75,-107.438,0.584961,0.370605,0.422852,2,-12,-1,0,-2,-3,-1,-1,20856
0.281077,-0.00912932,2.79205,-35.3125,83.75,-97.125,0.500977,0.480469,0.338379,3,-4,-18,-12,-8,-9,6,8,20874
0.278302,0.00558361,2.7774,-35.3125,57.8125,-60.125,0.434082,0.448242,0.115723,-2,-3,3,-3,-6,-4,7,3,20891
0.276344,0.00878773,2.77071,-21,35.875,-30.1875,0.487793,0.226563,-0.0361328,-4,2,-4,-2,-3,-3,1,0,20907
0.275878,0.00576993,2.76655,-7.25,20.8125,-18.375,0.487793,0.0415039,-0.182129,0,2,1,3,4,2,7,-2,20925
0.279227,-0.00303611,2.76499,3.6875,10.375,-7.875,0.546875,0.0185547,-0.238281,0,-4,-3,1,-1,1,-1,-1,20942
0.279227,-0.00303611,2.76499,3.6875,10.375,-7.875,0.546875,0.0185547,-0.238281,-3,6,-1,0,4,2,-7,-5,20959
0.285597,-0.01771,2.76722,6.75,1.5625,6.25,0.61084,0.103516,-0.255859,-3,-2,5,1,1,-3,-5,-2,20976
0.292079,-0.0379791,2.77337,3.75,-7.625,21.0625,0.645508,0.158203,-0.237793,-1,3,0,-1,-4,-4,-3,-1,20995
0.297484,-0.0636974,2.78341,6.375,-19.875,36.75,0.637695,0.105957,-0.166504,-2,-7,-2,4,4,-1,-23,-5,21011
0.302369,-0.0938481,2.7988,3.75,-27.9375,55.5,0.640625,0.214844,0.0449219,6,13,20,7,-8,-8,4,1,21029
0.302369,-0.0938481,2.7988,3.75,-27.9375,55.5,0.640625,0.214844,0.0449219,-6,-15,2,-7,-6,-13,-9,2,21045
0.309811,-0.130208,2.82119,4.4375,-39.625,82.3125,0.67334,0.484863,0.404297,-4,-4,-34,-56,-13,-17,2,15,21061
0.312617,-0.167238,2.85223,11.3125,-65.5,114.875,0.685547,0.875488,0.842773,-18,-25,27,-80,-46,-59,-1,36,21078
0.449615,-0.445656,3.00461,145,-162.625,176.813,0.76709,1.28418,1.8501,-128,-3,109,99,27,2,20,-126,21143
0.449615,-0.445656,3.00461,145,-162.625,176.813,0.76709,1.28418,1.8501,7,-104,-128,-128,-128,-128,27,127,21161
0.471835,-0.516591,3.04381,112.375,-142.938,184.063,0.883789,1.24512,1.95215,63,-57,-128,-128,-84,-89,-12,115,21177
0.479899,-0.578457,3.07984,74.1875,-124.875,165.375,0.816406,1.20996,1.89404,0,8,-29,-9,12,15,-21,-5,21194
0.482805,-0.631365,3.11174,58.4375,-111.188,144.188,0.570313,1.0957,1.78906,-15,9,29,19,33,42,-6,-18,21211
0.486379,-0.677733,3.13983,58.25,-99.8125,125.25,0.33252,0.852051,1.49414,-71,27,46,44,16,41,-8,-44,21229
0.493799,-0.717795,-3.12103,62,-90.3125,104.125,0.143066,0.696777,1.17773,-37,26,46,45,33,34,4,-46,21246
0.504122,-0.738142,-3.10356,59.4375,-79.1875,89.0625,-0.0410156,0.59082,0.92334,-1,0,-10,-3,-5,-14,2,-7,21262
0.504122,-0.738142,-3.10356,59.4375,-79.1875,89.0625,-0.0410156,0.59082,0.92334,20,-63,-32,-17,-9,-9,0,16,21279
0.508059,-0.753983,-3.08352,49,-63.8125,84.9375,-0.200195,0.450684,0.748047,9,-11,-17,-13,-16,-8,3,9,21296
0.503443,-0.767358,-3.0569,40.375,-49.6875,89.4375,-0.345703,0.302246,0.574707,9,-11,-17,-13,-16,-8,3,9,21313
0.490411,-0.777365,-3.02577,29.9375,-36.375,87,-0.48291,0.125977,0.431641,-2,25,-1,-3,7,-4,-7,2,21329
0.490411,-0.777365,-3.02577,29.9375,-36.375,87,-0.48291,0.125977,0.431641,1,17,2,3,-3,0,1,0,21345
0.472791,-0.784502,-2.99427,24.8125,-27.5625,73.125,-0.568359,-0.108398,0.30127,-13,-38,-2,4,6,5,-2,-1,21364
0.456286,-0.782183,-2.97119,14.125,-9.5,40.9375,-0.533203,-0.194824,0.276855,-3,-13,-1,1,4,2,-1,-1,21381
0.445258,-0.766405,-2.96175,-3.5625,8.5625,7.375,-0.619629,-0.0761719,0.276367,0,-3,-3,-7,10,-6,-3,-4,21398
0.444836,-0.663613,-2.99494,-20,46.75,-75.875,-0.491211,0.107422,0.360352,-19,2,-39,-18,-30,-2,-14,2,21484
0.448759,-0.56509,-3.06721,-62.5,88.25,-148.875,-0.260254,0.683594,1.21094,26,-110,34,-47,8,10,0,2,21501
0.452744,-0.507638,-3.11159,-59.0625,85.625,-159.375,-0.10498,1.19092,1.65039,-60,-55,115,42,23,28,1,-8,21519
0.450144,-0.451476,3.12896,-69.25,91.5625,-162,0.535156,1.23438,1.81006,-16,-51,-10,7,24,33,0,-18,21536
0.450144,-0.451476,3.12896,-69.25,91.5625,-162,0.535156,1.23438,1.81006,127,127,121,126,73,83,10,-64,21554
0.422304,-0.315035,3.02642,-101.125,124.438,-220.875,0.674316,1.34619,1.76514,127,127,121,126,73,83,10,-64,21571
0.422304,-0.315035,3.02642,-101.125,124.438,-220.875,0.674316,1.34619,1.76514,109,95,-46,-46,-31,-60,59,65,21588
0.397778,-0.243313,2.97077,-114.438,127.5,-222.813,0.607422,1.56494,1.78369,-26,-23,-111,-106,-98,-128,13,118,21604
0.362996,-0.176779,2.92181,-128.563,125.938,-198.125,0.656738,1.64893,1.76953,-109,-126,-126,-121,-74,-95,-4,72,21621
0.362996,-0.176779,2.92181,-128.563,125.938,-198.125,0.656738,1.64893,1.76953,127,127,125,127,122,117,27,-103,21638
0.301104,-0.0834252,2.85601,-92.8125,95.1875,-118.563,0.711426,0.891113,1.02783,113,115,47,36,1,-40,46,-6,21655
0.301104,-0.0834252,2.85601,-92.8125,95.1875,-118.563,0.711426,0.891113,1.02783,18,81,-106,-88,-97,-114,38,74,21673
0.279523,-0.0164242,2.7984,-27.125,74.5,-105.625,0.568848,0.526367,0.465332,-38,-69,-103,-82,-63,-70,-2,64,21689
0.279523,-0.0164242,2.7984,-27.125,74.5,-105.625,0.568848,0.526367,0.465332,-19,-64,-40,-31,-16,-16,-10,19,21705
0.279523,-0.0164242,2.7984,-27.125,74.5,-105.625,0.568848,0.526367,0.465332,-19,-67,-14,-12,1,3,-1,5,21723
0.267188,0.00978062,2.76175,-40.625,50.375,-56.875,0.487305,0.277344,0.10791,-3,-28,5,4,1,10,-17,-5,21739
0.269561,0.00391039,2.75202,3.4375,11.875,3.3125,0.505859,0.09375,-0.212891,-4,-12,0,2,1,0,-5,-3,21797
0.276671,-0.00816173,2.75772,11,9,14.3125,0.577637,0.0820313,-0.209473,3,1,1,6,3,0,17,0,21814
0.284177,-0.0229979,2.76809,5.5,7.625,29.125,0.606934,0.189941,-0.188965,-6,-6,-6,-3,-2,-3,-9,0,21831
0.289211,-0.041944,2.78345,3.8125,1.625,45.4375,0.622559,0.13623,-0.128906,0,-7,-23,-13,0,0,2,-3,21848
0.292012,-0.0632223,2.80071,4.1875,-4.125,53.375,0.618164,0.112305,0.0654297,0,-19,2,-8,-8,-10,-1,1,21866
0.292012,-0.0632223,2.80071,4.1875,-4.125,53.375,0.618164,0.112305,0.0654297,25,70,-1,-17,0,-15,-4,4,21884
0.301811,-0.0910958,2.82254,15.5,-19.1875,72.1875,0.628906,0.380371,0.405762,-28,-45,-47,-33,-18,-28,-18,12,21900
0.313768,-0.119531,2.85213,34.8125,-43.75,103.438,0.60498,0.766602,0.797852,-24,-34,-62,-14,-33,-39,7,40,21917
0.332538,-0.164693,2.88729,59.6875,-87,135.625,0.504883,0.944336,1.28564,0,-42,-100,-46,-12,12,-4,1,21935
0.365942,-0.228784,2.92734,112.875,-132.75,169.125,0.491699,0.957031,1.59131,108,41,127,127,113,127,-2,-79,21951
0.404292,-0.302405,2.96953,135.563,-151.313,189.125,0.665527,1.14307,1.81152,13,108,121,113,126,126,-16,-124,21969
0.430927,-0.378328,3.00512,104.5,-160.875,178.813,0.787109,1.27002,1.90918,30,108,122,77,37,13,37,-69,21986
0.430927,-0.378328,3.00512,104.5,-160.875,178.813,0.787109,1.27002,1.90918,-128,-128,-128,-128,-128,-128,6,35,22003
0.445612,-0.446471,3.03885,78.125,-140.25,164.938,0.900391,1.07422,1.85742,111,-65,-128,-128,-113,-125,9,125,22020
0.454066,-0.501104,3.06536,55.5625,-115.875,132.563,0.786621,1.09619,1.77148,23,11,-42,-27,11,25,-12,21,22037
0.461412,-0.546269,3.08714,49,-101.125,112.375,0.466309,1.08594,1.65039,23,11,-42,-27,11,25,-12,21,22055
0.475135,-0.626748,3.13268,53.75,-85.125,106.438,0.107422,0.797852,1.1958,21,-20,8,8,2,4,32,-10,22113
0.478055,-0.696806,-3.10041,45.5625,-69.4375,102.063,-0.14209,0.464355,0.775879,11,-6,-3,-5,-4,0,-6,-6,22130
0.475859,-0.728294,-3.07214,46.875,-62.25,101.063,-0.257813,0.3125,0.613281,-13,-3,3,3,2,-3,-4,-2,22147
0.468781,-0.747165,-3.04151,43,-55.4375,96.8125,-0.381836,0.131348,0.422363,-5,7,-5,-5,1,-2,-7,-3,22164
0.468781,-0.747165,-3.04151,43,-55.4375,96.8125,-0.381836,0.131348,0.422363,-6,-14,-2,-2,4,3,-2,0,22182
0.459146,-0.761707,-3.01294,37.75,-47.125,80.5625,-0.495605,-0.0454102,0.313965,-1,6,-3,-5,0,-5,-4,-2,22199
0.459146,-0.761707,-3.01294,37.75,-47.125,80.5625,-0.495605,-0.0454102,0.313965,5,5,3,-1,-1,4,-1,0,22216
0.448692,-0.768015,-2.99206,24.4375,-35.5625,51.1875,-0.61377,-0.17627,0.225098,1,7,-2,-2,1,-2,-2,4,22234
0.429733,-0.745226,-2.98147,-16.4375,4.5625,-8.375,-0.678223,-0.0869141,0.211426,2,9,-6,-7,-6,0,-5,-11,22251
0.429733,-0.745226,-2.98147,-16.4375,4.5625,-8.375,-0.678223,-0.0869141,0.211426,5,20,18,18,4,3,-1,4,22270
0.429733,-0.745226,-2.98147,-16.4375,4.5625,-8.375,-0.678223,-0.0869141,0.211426,-18,-7,-8,1,3,7,5,3,22285
0.417205,-0.682646,-3.00258,-31.6875,34.125,-56.0625,-0.573242,0.059082,0.421387,-7,-8,-15,9,-2,-3,-25,1,22303
0.42701,-0.641848,-3.02705,-9.875,35.9375,-80.75,-0.483887,0.151367,0.564941,-8,-16,17,-17,4,-2,5,-3,22319
0.42701,-0.641848,-3.02705,-9.875,35.9375,-80.75,-0.483887,0.151367,0.564941,20,-57,62,-18,-7,-2,-8,-14,22335
0.453031,-0.556849,-3.09872,-40.375,70.3125,-130.5,0.0253906,1.14404,1.35791,13,-85,-7,-11,-14,-1,3,-5,22353
0.450935,-0.50218,-3.139,-70.6875,87.9375,-149.5,0.307129,1.25635,1.64307,-38,-6,-28,45,13,16,-1,-3,22370
0.373941,-0.243416,2.97514,-107,138.625,-163.563,0.802734,1.53418,1.67822,-123,-114,19,22,19,44,-16,-17,22455
0.373941,-0.243416,2.97514,-107,138.625,-163.563,0.802734,1.53418,1.67822,126,127,127,127,112,127,-10,-106,22472
0.327673,-0.125293,2.91422,-80.0625,133.875,-130.25,0.698242,1.02686,1.31445,127,127,106,108,74,78,16,-75,22489
0.327673,-0.125293,2.91422,-80.0625,133.875,-130.25,0.698242,1.02686,1.31445,-23,70,-66,-68,-52,-87,9,27,22506
0.315755,-0.075995,2.88899,-49.375,121.188,-115.563,0.672363,0.802734,0.97168,-42,-50,-94,-83,-53,-66,10,44,22523
0.315755,-0.075995,2.88899,-49.375,121.188,-115.563,0.672363,0.802734,0.97168,-13,-59,-41,-37,-13,-10,-10,22,22540
0.297237,0.0101474,2.8418,-31.625,100.625,-101.875,0.52832,0.442871,0.424316,-7,-45,-11,-12,-5,2,-1,10,22557
0.296286,0.0324571,2.82378,-22.5,75.6875,-77.5625,0.44043,0.391113,0.237305,-3,-29,-17,-15,-7,-3,-19,2,22574
0.296286,0.0324571,2.82378,-22.5,75.6875,-77.5625,0.44043,0.391113,0.237305,-2,-9,0,-15,7,10,-8,-6,22591
0.296286,0.0324571,2.82378,-22.5,75.6875,-77.5625,0.44043,0.391113,0.237305,-8,-4,10,12,5,9,1,-8,22607
0.296286,0.0324571,2.82378,-22.5,75.6875,-77.5625,0.44043,0.391113,0.237305,3,24,-6,1,3,1,3,-7,22625
0.302994,0.0391034,2.80257,8.8125,16.0625,-15.6875,0.574707,0.0805664,-0.184082,-2,-5,7,3,1,2,-10,-2,22641
0.302994,0.0391034,2.80257,8.8125,16.0625,-15.6875,0.574707,0.0805664,-0.184082,1,4,20,6,-1,-5,4,2,22658
0.3214,0.00372516,2.80766,12.1875,-10.8125,18.375,0.635254,0.167969,-0.1875,7,-8,-7,-10,-7,2,1,-2,22675
0.330487,-0.0256807,2.81794,9.125,-29.3125,41.1875,0.633789,0.219727,-0.111328,-4,-8,-16,-6,0,-1,-12,-2,22692
0.330487,-0.0256807,2.81794,9.125,-29.3125,41.1875,0.633789,0.219727,-0.111328,-8,-11,-15,-11,-10,-17,-16,9,22709
0.378631,-0.2548,2.93917,71.875,-140.563,165.5,0.540039,0.935059,1.56201,76,0,105,82,52,62,-10,-37,22794
0.40584,-0.331335,2.97572,105.5,-164.188,177.25,0.671387,0.939453,1.76465,-57,21,127,118,110,126,-47,-95,22811
0.434764,-0.407556,3.00195,106.688,-173.813,156,0.682129,1.06592,1.81787,81,123,117,101,86,75,27,-92,22828
0.434764,-0.407556,3.00195,106.688,-173.813,156,0.682129,1.06592,1.81787,-128,-128,-128,-128,-128,-128,39,68,22844
0.455217,-0.475583,3.02472,83.625,-156.063,141.125,0.637695,1.08594,1.81299,98,-76,-128,-128,-116,-116,-11,118,22861
0.46207,-0.534782,3.04524,43.25,-136.375,127.438,0.624023,1.20166,1.7085,86,14,-112,-94,-33,-27,-36,71,22878
0.459177,-0.584892,3.06357,15.875,-118.375,111.313,0.439941,1.08496,1.58203,4,35,-29,-13,18,24,-5,2,22895
0.457236,-0.628965,3.08073,19.625,-106.938,99.875,0.25,0.926758,1.42383,52,-53,-2,3,9,10,1,-10,22912
0.46447,-0.653172,3.09417,34.5625,-95.875,89.625,0.100586,0.79541,1.21289,15,2,6,8,3,4,-7,-20,22929
0.46447,-0.653172,3.09417,34.5625,-95.875,89.625,0.100586,0.79541,1.21289,-18,9,11,12,9,9,-8,-23,22947
0.472965,-0.674932,3.10773,43.0625,-88.1875,83.0625,-0.0610352,0.606934,0.978027,7,-44,17,3,2,0,13,-8,22963
0.479927,-0.694639,3.12273,46.8125,-77.75,78.1875,-0.170898,0.420898,0.774414,1,0,-18,-14,0,-5,-5,2,22981
0.487755,-0.711846,3.1394,54.875,-70.6875,76.375,-0.347168,0.293945,0.616211,-9,19,-12,-12,-5,2,-3,3,22998
0.491595,-0.727763,-3.12794,47.125,-66.0625,67.875,-0.441895,0.125,0.475586,2,1,-8,-2,-6,2,-6,-1,23016
0.491155,-0.737817,-3.1157,33.4375,-51.1875,45.625,-0.439941,-0.0317383,0.394531,10,10,-5,-2,-4,0,-3,-2,23032
0.489938,-0.736514,-3.11031,19.5625,-26.3125,13.875,-0.481934,-0.125,0.297852,-1,-6,-1,-3,-1,1,4,0,23050
0.483496,-0.656701,-3.13094,-17.6875,35.125,-65.9375,-0.615723,-0.157227,0.299316,-3,-6,0,-11,-3,-7,-3,-3,23116
0.483496,-0.656701,-3.13094,-17.6875,35.125,-65.9375,-0.615723,-0.157227,0.299316,4,0,16,-12,-3,-3,5,0,23134
0.493814,-0.573116,3.09966,-23.1875,52.8125,-112.25,-0.453125,0.129883,0.574219,2,-25,-41,-25,-3,-9,14,0,23152
0.502819,-0.527384,3.06478,-26.625,63.1875,-131.563,-0.244629,0.491211,0.92334,7,-49,8,37,-5,-5,-1,9,23169
0.502819,-0.527384,3.06478,-26.625,63.1875,-131.563,-0.244629,0.491211,0.92334,-56,14,12,3,-17,8,-6,-10,23187
0.496259,-0.414848,2.98588,-89.0625,87.75,-164.063,0.310059,1.40771,1.68604,-26,6,21,27,18,19,-8,-39,23203
0.496259,-0.414848,2.98588,-89.0625,87.75,-164.063,0.310059,1.40771,1.68604,87,85,113,105,33,27,7,-21,23220
0.467138,-0.352676,2.94961,-122.25,113.125,-168.063,0.549805,1.72559,1.89453,44,42,0,8,-4,-17,1,15,23237
0.435713,-0.290552,2.91314,-123.375,116.813,-166.75,0.632324,1.87793,1.87305,25,30,-79,-45,-39,-58,13,58,23255
0.40511,-0.227904,2.87954,-112.188,126.125,-158.375,0.781738,1.81836,1.78271,47,-26,-128,-127,-69,-86,-5,66,23273
0.376358,-0.166273,2.8458,-101.313,126.938,-155,0.76123,1.65869,1.57959,-15,-108,-95,-126,-52,-57,-15,43,23290
0.376358,-0.166273,2.8458,-101.313,126.938,-155,0.76123,1.65869,1.57959,-119,-115,66,43,43,69,-24,-70,23307
0.356197,-0.111614,2.81321,-84.5,121.875,-143.75,0.679199,1.34814,1.31982,118,127,127,125,127,127,-33,-128,23325
0.338682,-0.0609251,2.78315,-68.6875,116.625,-132.625,0.618164,1.05908,1.05322,118,127,127,125,127,127,-33,-128,23343
0.321248,-0.0151881,2.7557,-62.625,108.063,-120.063,0.586914,0.88623,0.838867,123,127,115,127,65,67,40,-60,23361
0.300757,0.0226387,2.73005,-64.875,91.125,-106.25,0.611328,0.556152,0.540527,-35,110,-59,-42,-60,-100,19,56,23377
0.292705,0.061146,2.67755,-3.75,40.875,-47.9375,0.583984,0.203613,-0.0625,-10,-93,-52,-37,-10,-2,-24,14,23429
0.295437,0.0610343,2.67029,-0.0625,30.8125,-31.75,0.575684,0.0957031,-0.151367,-5,-50,-16,-15,-1,2,-21,-1,23445
0.298062,0.0569932,2.66779,2.0625,23,-14.8125,0.563965,0.0297852,-0.193359,5,-26,-3,-3,5,7,13,-8,23463
0.298062,0.0569932,2.66779,2.0625,23,-14.8125,0.563965,0.0297852,-0.193359,8,24,13,12,8,10,2,-6,23479
0.300799,0.0479379,2.67151,2.3125,14.875,6.1875,0.57373,0.012207,-0.206055,8,18,11,9,1,11,-11,-11,23497
0.30439,0.0336413,2.68082,0.9375,4,26.375,0.543945,0.0629883,-0.189941,18,34,31,29,15,15,-39,-16,23514
