roll,pitch,yaw, gyro_x, gyro_y, gyro_z, accel_x, accel_y, accel_z, EMG0, EMG1, EMG2, EMG3, EMG4, EMG5, EMG6, EMG7, time
-1.7198,-0.711936,0.776054,-39.1875,81.0625,-97,0.120117,0.447266,0.302246,0,0,0,0,0,0,0,0,381
-1.71551,-0.763578,0.733644,-70.625,107.5,-122.25,0.461914,0.429688,0.197754,0,0,0,0,0,0,0,0,397
-1.70371,-0.832726,0.67202,-91.9375,147.375,-157,1.76221,0.17041,-0.0239258,0,0,0,0,0,0,0,0,415
-1.70371,-0.832726,0.67202,-91.9375,147.375,-157,1.76221,0.17041,-0.0239258,0,0,0,0,0,0,0,0,432
-1.6646,-0.901177,0.568859,-113.938,212.25,-173.25,2.57422,-0.63623,-0.309082,0,0,0,0,0,0,0,0,450
-1.5864,-0.976351,0.435828,-83.5625,236.938,-202.438,2.32324,-1.37158,0.0405273,0,0,0,0,0,0,0,0,467
-1.48194,-1.03009,0.310249,-4.5,187.5,-160.438,2.61328,-1.41602,-0.34668,0,0,0,0,0,0,0,0,484
-1.37657,-1.07583,0.187354,-4.3125,154.25,-154.25,3.18213,-0.808594,0.424805,0,0,0,0,0,0,0,0,500
-1.28022,-1.11824,0.0527988,-67.5625,141.625,-160.188,2.28662,-0.321289,-0.897461,0,0,0,0,0,0,0,0,518
-1.28022,-1.11824,0.0527988,-67.5625,141.625,-160.188,2.28662,-0.321289,-0.897461,0,0,0,0,0,0,0,0,535
-1.28022,-1.11824,0.0527988,-67.5625,141.625,-160.188,2.28662,-0.321289,-0.897461,0,0,0,0,0,0,0,0,551
-1.2136,-1.20831,-0.171284,-228.375,65.3125,-157.875,1.18311,-0.435059,-0.827637,-1,-1,4,1,-14,-4,-1,-2,569
-1.23554,-1.24476,-0.240228,-248.5,29.25,-119.313,1.62939,-0.437012,0.0727539,1,-1,3,2,-14,-4,1,-2,586
-1.23108,-1.2647,-0.299345,-143.188,42.25,-86.75,0.227051,-0.969238,-0.720215,-2,-1,-1,2,5,-4,-10,-9,603
-1.21697,-1.26708,-0.331026,-36.25,44.3125,-59.1875,0.639648,-0.826172,-0.249023,-1,-2,-3,1,7,5,9,-1,620
-1.21697,-1.26708,-0.331026,-36.25,44.3125,-59.1875,0.639648,-0.826172,-0.249023,-2,-2,-5,-2,2,-3,-9,1,637
-1.23307,-1.27805,-0.287949,55,-4.25,-27.5,0.000976563,-0.371094,-0.515625,-2,-1,-2,-2,0,0,-4,-4,688
-1.38291,-1.27237,-0.115042,25.25,-30.125,0.1875,-0.304199,-0.461914,-0.661133,0,-1,0,1,-3,2,1,-7,705
-1.48095,-1.25511,-0.017182,4.625,-25.9375,15.9375,-0.205566,-0.62207,-0.787598,1,0,-4,-8,-9,-3,8,-1,721
-1.56291,-1.22595,0.0653232,8.25,-16.75,46.4375,0.123047,-0.665527,-0.849609,-5,-1,-4,5,-2,-2,-10,-2,739
-1.62114,-1.18747,0.130594,26.125,-22.125,76.6875,0.260254,-0.61084,-0.727051,2,-2,-2,2,2,-4,-10,-2,757
-1.62114,-1.18747,0.130594,26.125,-22.125,76.6875,0.260254,-0.61084,-0.727051,3,-1,3,2,-3,-3,-6,-4,774
-1.65263,-1.13988,0.182127,58,-35.3125,96.6875,0.325195,-0.716797,-0.510254,-9,-3,-7,-8,-8,-4,-4,2,791
-1.67105,-1.09435,0.223384,65.75,-35.6875,97.375,1.00635,-0.958496,-0.482422,3,-1,-6,-9,10,9,-5,5,808
-1.6827,-1.06577,0.270219,92.25,-59.0625,88,2.21045,-1.00439,-0.334473,21,-1,-7,-14,-8,-10,31,-13,825
-1.68811,-1.00435,0.326558,123.5,-102.063,165.5,2.50146,-0.913574,-0.235352,1,-1,3,-9,-7,3,-1,1,842
-1.70635,-0.939633,0.400416,122.813,-141.813,169.25,2.93945,-1.08105,0.0629883,0,-1,-1,-2,15,9,10,2,860
-1.71076,-0.870959,0.468844,141.688,-146.938,178.125,2.56348,-1.04639,0.265137,3,0,9,0,-11,0,22,1,877
-1.71076,-0.870959,0.468844,141.688,-146.938,178.125,2.56348,-1.04639,0.265137,-10,3,-5,-2,18,16,0,8,894
-1.7181,-0.812281,0.525694,95.6875,-139,165.5,2.15723,-0.849121,0.248535,-1,3,6,1,-1,6,6,-10,911
-1.72368,-0.763155,0.572608,75.25,-121.625,142.563,1.94336,-0.53418,0.236328,11,-1,1,-25,-15,-7,17,-12,928
-1.72614,-0.721788,0.611122,64.3125,-104.813,125.125,1.87207,-0.266602,0.169434,-5,-2,-1,5,-9,-9,-4,-5,945
-1.74586,-0.559963,0.75133,48.5625,-107.563,101.5,0.577637,0.193359,0.222656,2,0,-1,3,-1,-19,-10,-4,1020
-1.74677,-0.524919,0.787408,48.5625,-107.5,90.375,0.318848,0.302246,0.202637,-3,-1,-5,0,6,-3,-10,-2,1038
-1.74677,-0.524919,0.787408,48.5625,-107.5,90.375,0.318848,0.302246,0.202637,1,-1,-2,3,1,4,-1,-1,1055
-1.74529,-0.491907,0.822114,48.375,-105.125,80.3125,-0.0620117,0.389648,0.358398,-6,2,-2,-4,-6,-8,0,-1,1072
-1.72857,-0.468607,0.847238,59.0625,-85.875,57.375,-0.27832,0.621582,0.472168,3,1,1,1,-4,1,1,-3,1089
-1.70372,-0.469708,0.859835,67.375,-43.625,6.625,-0.250488,0.978027,0.470703,-9,-4,-4,0,0,12,1,-3,1107
-1.69079,-0.495193,0.858519,20.5,1.9375,-52.0625,-0.245117,1.08594,0.378418,6,-14,-2,0,0,-5,7,-1,1124
-1.69706,-0.540038,0.846591,-47.4375,33.875,-90.3125,0.00585938,0.955078,0.340332,-9,-8,-2,-6,-1,-3,-1,1,1141
-1.71446,-0.59369,0.828691,-79,60.8125,-132.688,0.447266,0.740723,0.228516,27,5,9,-8,-12,-1,43,-4,1158
-1.73395,-0.659753,0.810047,-88.5,68.5,-165.75,0.779785,0.42041,0.179199,-26,-14,-9,-18,-12,6,-35,15,1176
-1.73395,-0.659753,0.810047,-88.5,68.5,-165.75,0.779785,0.42041,0.179199,-8,-15,-7,-11,-11,-3,-1,0,1194
-1.74951,-0.737172,0.787876,-85.875,85.5,-210.625,2.05908,-0.39209,0.012207,13,1,-3,8,4,-4,-12,1,1211
-1.75847,-0.811944,0.738554,-124.438,138.25,-192.188,3.38623,-0.656738,0.188965,-11,-13,-3,-19,-23,-7,24,-9,1228
-1.74814,-0.876821,0.684353,-86.625,135.5,-163.938,2.93457,-0.988281,-0.0283203,-5,-1,-5,-23,3,5,9,1,1245
-1.72774,-0.93808,0.62349,-79.1875,134.875,-155.5,2.56348,-1.04541,-0.103027,-1,0,-1,19,8,3,14,-21,1262
-1.72774,-0.93808,0.62349,-79.1875,134.875,-155.5,2.56348,-1.04541,-0.103027,6,0,0,8,-13,-6,25,3,1280
-1.66881,-1.11145,0.389877,-178.125,126.563,-142.438,2.12695,-0.295898,-0.40918,4,4,4,7,7,1,-12,0,1333
-1.66919,-1.15776,0.321081,-176.313,103.313,-122.625,1.60645,-0.623047,-0.534668,-3,2,3,9,-3,-1,-10,8,1350
-1.64887,-1.19087,0.247551,-133.813,96.3125,-93.875,1.01758,-0.795898,-0.460449,0,-2,0,2,0,-7,-1,-16,1367
-1.63376,-1.20518,0.198244,-78.75,80.1875,-63.625,0.652344,-0.640625,-0.42041,-1,-2,0,0,-1,-3,10,1,1384
-1.62137,-1.21392,0.16573,-40.125,66.4375,-43.9375,0.352539,-0.446777,-0.504395,-4,-1,2,-4,2,1,-5,-6,1401
-1.62362,-1.21891,0.149688,-36.25,54,-37.6875,0.116211,-0.40625,-0.581543,-2,0,-1,-8,-12,7,9,12,1419
-1.62362,-1.21891,0.149688,-36.25,54,-37.6875,0.116211,-0.40625,-0.581543,2,-2,-1,-3,3,-9,-3,-13,1436
-1.65589,-1.22065,0.156468,-57.875,41.0625,-34.3125,-0.0649414,-0.408203,-0.733398,-3,-3,-3,-5,-5,-1,1,2,1453
-1.71134,-1.21299,0.18914,-53.125,17.875,-19.125,-0.270508,-0.476074,-0.812988,1,0,1,1,8,9,0,14,1470
-1.77012,-1.19189,0.238779,-16.3125,-0.6875,1.1875,-0.355469,-0.638672,-0.915527,-2,-2,-3,-9,-11,-9,2,-2,1487
-1.8174,-1.15948,0.28941,19.5,-12.8125,28.25,-0.130859,-0.736328,-0.963379,0,-1,-3,11,3,0,-5,1,1504
-1.84742,-1.12821,0.333443,48.75,-19.5625,39.9375,0.247559,-0.647461,-0.883789,1,-6,-3,-22,-8,0,13,-3,1521
-1.84742,-1.12821,0.333443,48.75,-19.5625,39.9375,0.247559,-0.647461,-0.883789,-6,0,-1,18,12,4,-20,4,1537
-1.86314,-1.09238,0.371522,68.875,-32.5,55.1875,0.358887,-0.666016,-0.73584,10,-2,4,-6,5,7,1,-2,1554
-1.85465,-1.05316,0.388106,75.6875,-25.625,70.3125,0.769531,-0.927734,-0.572266,0,-2,-4,6,0,-11,-13,-7,1571
-1.85704,-1.01969,0.413004,58,-53.0625,73.9375,1.83984,-1.2124,-0.456543,-18,-3,-9,7,-17,-22,-38,5,1589
-1.8721,-0.801765,0.581984,133.688,-175.25,196.75,2.7627,-1.03613,0.280273,-3,1,-2,9,2,-3,-16,-3,1648
-1.86151,-0.730435,0.620089,106.188,-135.063,172.938,2.18555,-0.742676,0.224609,-10,1,-2,24,3,-3,-21,6,1665
-1.84842,-0.672782,0.643217,75.75,-104.063,161.563,1.76904,-0.518555,0.195801,3,0,2,-7,2,-1,5,-4,1683
-1.84842,-0.672782,0.643217,75.75,-104.063,161.563,1.76904,-0.518555,0.195801,-4,-2,-1,-2,-6,-6,2,-2,1699
-1.84399,-0.619389,0.665846,48.9375,-99.625,155.375,1.89014,-0.328613,0.0922852,-1,-2,-4,-5,-2,4,0,7,1716
-1.84783,-0.56806,0.690434,26.625,-104.25,150.25,1.78613,-0.0463867,0.0820313,1,-2,-2,-1,1,5,0,-1,1733
-1.85506,-0.514893,0.721464,23.5625,-122.563,145.438,1.40381,0.00585938,0.0898438,1,1,-1,1,-4,-3,1,-2,1749
-1.86144,-0.463319,0.758836,30.125,-137.5,129.188,0.941406,0.0249023,0.120605,-4,-1,0,-2,-6,7,-2,3,1767
-1.85934,-0.42148,0.798865,53.4375,-137.938,96.3125,0.675781,0.161133,0.153809,1,1,0,-5,-1,1,-1,-3,1784
-1.84425,-0.386689,0.834492,82,-120.813,77.5625,0.406738,0.269531,0.155762,3,-1,1,-2,-3,-2,1,-2,1801
-1.84425,-0.386689,0.834492,82,-120.813,77.5625,0.406738,0.269531,0.155762,-3,-5,0,0,8,0,1,-2,1818
-1.82453,-0.356334,0.864857,86,-102.875,66.625,0.126465,0.339844,0.208496,1,-1,-1,-3,-9,-16,-2,-5,1835
-1.79666,-0.334295,0.887566,88.5625,-80.9375,52.75,-0.081543,0.501465,0.331055,3,-1,0,-3,-5,-9,4,-11,1851
-1.76618,-0.320921,0.898027,79.5625,-41.375,29,-0.269043,0.689941,0.411621,-4,-4,-2,1,1,1,-4,1,1868
-1.74105,-0.324626,0.896687,48.5625,-2.625,-6.0625,-0.267578,0.958984,0.523438,-3,-3,3,-6,-4,1,11,-4,1885
-1.74105,-0.324626,0.896687,48.5625,-2.625,-6.0625,-0.267578,0.958984,0.523438,4,1,4,2,0,-14,2,-8,1903
-1.72523,-0.480608,0.839634,-34.375,109.125,-201.75,0.714844,1.02832,0.320313,-1,-1,17,-10,-29,14,22,8,1950
-1.74208,-0.580079,0.787551,-121.688,171.5,-238.938,1.40967,0.164063,-0.0908203,-15,-7,-22,-17,54,10,-53,-5,1967
-1.77015,-0.68725,0.705927,-219,242.188,-267.313,2.57227,-0.814941,0.143555,19,-4,8,3,-29,-47,45,-19,1984
-1.77015,-0.68725,0.705927,-219,242.188,-267.313,2.57227,-0.814941,0.143555,-29,11,-5,-4,-36,33,-29,23,2000
-1.76734,-0.79596,0.618022,-162.625,244.063,-269.125,3.36963,-1.04102,0.29834,-1,-2,-6,-43,7,2,-6,0,2018
-1.73458,-0.891674,0.528706,-97.5,216.563,-239.25,3.57373,-0.913574,0.330566,-4,0,-12,27,56,-10,-19,0,2035
-1.6978,-0.975044,0.439041,-101.75,186,-214.313,2.97852,-0.708008,0.11084,-8,2,-3,47,36,-10,-21,-9,2053
-1.65155,-1.04682,0.342564,-101.688,167.25,-189.188,2.56396,-0.504395,0.113281,10,2,6,4,9,5,5,12,2071
-1.59974,-1.11239,0.239187,-112.25,149.813,-165.313,2.29053,-0.226074,-0.0214844,16,-1,8,8,-3,2,24,3,2087
-1.54952,-1.16388,0.13185,-134.188,132.875,-138.063,1.99316,-0.263184,-0.16748,-6,1,-1,14,-22,1,-21,3,2104
-1.54952,-1.16388,0.13185,-134.188,132.875,-138.063,1.99316,-0.263184,-0.16748,3,-2,0,19,7,1,6,-7,2121
-1.52404,-1.19535,0.0487719,-144.813,94.6875,-92.8125,1.41992,-0.492676,-0.424805,1,-1,3,5,-5,-1,9,-8,2138
-1.51869,-1.20896,0.000528122,-109.188,57.1875,-46.625,0.903809,-0.681152,-0.574707,-1,-3,1,-7,5,-1,-4,0,2155
-1.55175,-1.2004,0.00963993,-54.9375,31,-16.1875,0.410156,-0.780273,-0.609375,5,-2,1,-12,-1,6,-11,12,2172
-1.5918,-1.19083,0.0449084,-5.5,1.4375,-6.25,0.185547,-0.600586,-0.600098,-6,-1,0,-8,2,0,0,-7,2189
-1.644,-1.18034,0.102579,21.0625,-19.3125,-2,0.0834961,-0.492188,-0.691406,0,0,-2,-2,0,-6,-6,-4,2206
-1.87254,-1.03431,0.37062,43.625,-34.625,74.875,0.294434,-0.679688,-0.665039,-2,2,-6,-6,0,7,-7,8,2305
-1.87254,-1.03431,0.37062,43.625,-34.625,74.875,0.294434,-0.679688,-0.665039,-14,0,-5,23,15,5,-34,12,2321
-1.86105,-0.990331,0.376806,49.5,-40.3125,108.938,0.310547,-0.832031,-0.421875,14,-3,2,-6,5,-2,25,-8,2338
-1.84021,-0.944069,0.376727,59.3125,-35.1875,121.625,0.763672,-0.954102,-0.235352,-3,-4,-8,4,6,-13,-23,-5,2355
-1.84021,-0.944069,0.376727,59.3125,-35.1875,121.625,0.763672,-0.954102,-0.235352,-3,-4,-8,4,6,-13,-23,-5,2372
-1.81947,-0.903375,0.387906,83.1875,-53,113.938,1.83789,-0.944824,-0.0673828,6,3,11,3,-3,-10,0,-12,2389
-1.79352,-0.746859,0.474799,139.688,-166.625,217.813,2.97607,-0.89502,0.243652,-8,1,-5,16,15,9,-30,5,2407
-1.77451,-0.655241,0.523575,144.875,-160.125,234.438,2.97119,-0.881836,0.25,2,3,3,16,21,-6,-1,-8,2423
-1.77451,-0.655241,0.523575,144.875,-160.125,234.438,2.97119,-0.881836,0.25,-1,-1,-2,-2,-6,-9,-9,8,2441
-1.77342,-0.565441,0.571818,82.5,-163.063,229.438,2.28906,-0.839355,0.306641,0,2,5,-8,3,5,8,-4,2458
-1.77277,-0.496117,0.614515,57.75,-151.563,196.125,1.84277,-0.505859,0.248047,0,1,2,-6,-11,0,-5,-3,2475
-1.77201,-0.444975,0.653068,48.0625,-133.125,148.25,1.7832,-0.360352,0.195801,3,2,2,4,-8,-19,8,-2,2493
-1.77384,-0.394841,0.690469,34.375,-131.5,144.438,1.56396,-0.139648,0.180176,5,-1,0,-3,-11,-20,1,0,2511
-1.77186,-0.345561,0.728972,42.5,-134.563,137.813,1.24072,0.101074,0.197266,0,0,2,-2,-5,-5,7,-1,2527
-1.76739,-0.299363,0.769648,46.875,-138.438,124.125,0.931152,0.226074,0.212402,-4,-1,-2,0,5,2,-10,2,2544
-1.76739,-0.299363,0.769648,46.875,-138.438,124.125,0.931152,0.226074,0.212402,-6,-7,-3,-6,-10,-1,-7,3,2560
-1.70404,-0.207742,0.887512,4.8125,-12.3125,-21.6875,-0.302734,0.750977,0.581055,-5,-8,-3,0,3,2,-4,1,2662
-1.70074,-0.230231,0.881051,-22.25,19.9375,-60.75,-0.207031,0.914063,0.544434,8,-4,4,4,5,5,14,-5,2680
-1.70771,-0.274099,0.866376,-48.0625,49.9375,-98.6875,0.0517578,0.92334,0.402344,5,1,5,-5,-1,-5,0,-3,2697
-1.72773,-0.325724,0.843593,-79.75,81,-128.5,0.274902,0.794434,0.334473,0,0,-7,-6,-14,-6,10,-5,2714
-1.75524,-0.392836,0.811695,-112.188,114.375,-159.625,0.717285,0.602051,0.191895,-22,-2,-22,23,8,-2,-79,13,2731
-1.75524,-0.392836,0.811695,-112.188,114.375,-159.625,0.717285,0.602051,0.191895,5,1,-7,-4,-4,15,5,-2,2748
-1.80747,-0.583337,0.697862,-183.75,225.375,-246.063,2.87695,-1.07666,-0.0288086,-4,-3,-4,-7,-21,5,20,-4,2766
-1.82023,-0.683082,0.626513,-157.875,229.125,-238.188,3.64795,-1.10303,0.0493164,5,0,-4,-3,-9,11,15,8,2784
-1.8021,-0.774236,0.5455,-102.938,230.313,-212.375,3.47363,-1.08105,-0.117676,-4,0,5,-6,-3,-2,6,10,2801
-1.8021,-0.774236,0.5455,-102.938,230.313,-212.375,3.47363,-1.08105,-0.117676,-1,0,7,-1,-4,-6,-7,-4,2818
-1.77431,-0.853468,0.470184,-77.4375,193.813,-189.938,2.77246,-0.809082,-0.143066,9,5,19,8,22,-7,28,-18,2835
-1.74615,-0.922495,0.400952,-73.3125,160.125,-170.438,2.38672,-0.536133,-0.244629,-4,0,2,7,5,6,-8,2,2853
-1.74019,-0.987894,0.339283,-125.188,133.75,-154.688,1.81641,-0.319824,-0.250977,1,-2,2,-5,-10,0,-9,6,2871
-1.75986,-1.03578,0.290909,-172.375,98,-114.438,1.56689,-0.367188,-0.244141,-2,-1,-1,1,-13,-3,-7,6,2889
-1.77329,-1.06508,0.243484,-153.813,87.1875,-70.3125,1.22998,-0.730469,-0.448242,-1,-1,-5,-1,-7,-4,-5,-7,2907
-1.77376,-1.07861,0.20261,-102.438,68.8125,-35.625,0.687988,-0.935059,-0.485352,-1,-1,-2,3,7,-3,-6,0,2924
-1.8329,-1.02255,0.249118,29.9375,-14.4375,19,-0.188965,-0.43457,-0.831543,2,-1,-1,-3,-7,-2,7,-4,2982
-1.87831,-0.994392,0.296447,15.5625,-28.875,13.625,-0.380859,-0.534668,-1.01416,-4,-1,1,-3,0,0,6,-9,3000
-1.87831,-0.994392,0.296447,15.5625,-28.875,13.625,-0.380859,-0.534668,-1.01416,-2,-2,-1,-6,-6,0,-1,-20,3017
-1.92421,-0.9576,0.343939,15.9375,-33.1875,20.9375,-0.375977,-0.703613,-1.1958,-3,-1,-4,-1,-3,-3,5,3,3034
-1.95898,-0.916921,0.385892,33.3125,-39.875,41.125,-0.0385742,-0.737305,-1.2207,13,-1,-6,-3,4,5,36,43,3052
-1.97804,-0.876128,0.419768,53.5,-50.8125,69.3125,0.304688,-0.52002,-1.02539,-4,-1,0,3,3,-5,-28,-11,3070
-1.97844,-0.832689,0.444599,72.9375,-66.5,94.1875,0.513672,-0.472656,-0.674805,9,1,7,5,1,0,32,3,3086
-1.96324,-0.796668,0.460751,81.25,-70.1875,96.5625,1.13135,-0.753418,-0.406738,1,-1,9,-3,-11,2,3,4,3103
-1.95054,-0.753407,0.488916,92.6875,-100.188,93.125,2.24268,-1.01758,-0.127441,-17,-4,-21,-1,2,-1,-36,-9,3121
-1.95054,-0.753407,0.488916,92.6875,-100.188,93.125,2.24268,-1.01758,-0.127441,11,-3,2,6,-4,-12,34,-16,3138
-1.9256,-0.678163,0.524932,139.188,-150.313,173.25,2.56299,-0.888672,0.191406,5,-2,-3,2,17,2,-5,-7,3156
-1.88737,-0.588003,0.575317,195.188,-195.438,205.813,3.0791,-1.19092,0.36084,-6,3,3,-1,1,8,-5,3,3173
-1.85539,-0.500996,0.619371,157,-177.25,205.938,2.42822,-0.964355,0.450684,0,2,-1,-5,-9,-10,0,-4,3190
-1.84369,-0.431175,0.649146,71.8125,-128.063,171.625,2.11719,-0.407227,0.374512,4,1,4,-4,9,7,-5,-13,3207
-1.84745,-0.37742,0.670277,13,-95.625,132.75,1.9541,-0.495117,0.321289,6,-1,0,-2,-4,-8,8,1,3224
-1.8552,-0.325471,0.691127,-1.4375,-95.1875,127.563,1.68262,-0.341797,0.273438,-4,-1,-2,-4,-5,-1,-12,-2,3241
-1.84365,-0.221433,0.760646,28.5,-98.75,96.0625,0.824219,0.155762,0.168457,1,1,2,-1,-4,-3,2,-2,3309
-1.82828,-0.202712,0.783766,50.875,-89.3125,75.3125,0.561035,0.329102,0.191406,1,0,0,-3,-2,9,-4,-5,3326
-1.80126,-0.183106,0.808183,79,-88.25,59.9375,0.249512,0.491699,0.292969,-5,-4,-3,-6,-6,2,0,-1,3343
-1.77106,-0.170246,0.829286,84.1875,-70,29.9375,-0.00537109,0.634277,0.321289,4,-4,3,1,2,-5,1,0,3361
-1.77106,-0.170246,0.829286,84.1875,-70,29.9375,-0.00537109,0.634277,0.321289,-6,1,0,2,6,0,-2,3,3378
-1.7483,-0.165538,0.84432,49.6875,-47.0625,-0.5,-0.229492,0.845215,0.504395,-1,-1,-1,-5,-1,2,1,-2,3395
-1.73713,-0.174084,0.851122,7.875,-18.625,-31.25,-0.245117,1.05762,0.592773,-2,-7,-6,9,3,-1,-8,-3,3412
-1.74314,-0.206867,0.84736,-43.375,19.75,-79.375,-0.0478516,1.0459,0.560059,-3,-8,-3,2,-5,0,-14,3,3429
-1.76943,-0.259613,0.830786,-91.6875,70.125,-130.938,0.307129,0.859375,0.492188,-18,-5,0,9,-1,-7,-27,-1,3446
-1.7952,-0.331561,0.801896,-102,116.5,-171.688,0.640625,0.595215,0.396484,-5,-2,-1,-2,-7,-2,-1,0,3464
-1.82463,-0.417236,0.760631,-127.5,165.313,-212.5,1.61914,0.151367,0.074707,-4,2,-3,-12,-4,4,-27,2,3479
-1.82463,-0.417236,0.760631,-127.5,165.313,-212.5,1.61914,0.151367,0.074707,15,2,-12,-3,8,1,27,-9,3496
-1.8633,-0.523434,0.705226,-183.188,218.438,-255.313,2.58496,-0.672363,0.0244141,0,1,-2,0,-12,-7,-15,-4,3513
-1.88313,-0.626647,0.640676,-157.563,236.625,-236.375,2.89258,-0.87793,0.212402,-4,-6,-2,-7,-4,-1,4,-34,3530
-1.87355,-0.725152,0.573742,-92.75,228.188,-223.625,3.58447,-0.756348,-0.0322266,0,-2,1,-1,10,14,17,17,3547
-1.84128,-0.808356,0.500287,-53.6875,213.063,-185.688,3.18994,-0.500977,-0.355469,-2,2,2,7,7,1,-13,-3,3564
-1.95951,-1.0847,0.352788,-116.813,54.625,-67.3125,0.802246,-0.669922,-0.393066,-2,-2,0,-4,1,-4,-4,-9,3668
-1.97149,-1.08347,0.342394,-56.8125,33.5,-23.6875,0.390625,-0.712891,-0.443848,1,-1,-2,1,0,-2,-3,-8,3685
-1.98299,-1.06687,0.351724,-3,-4.375,5.25,0.0908203,-0.600098,-0.45166,-4,-1,-2,-1,-2,-2,-5,-10,3703
-1.98299,-1.06687,0.351724,-3,-4.375,5.25,0.0908203,-0.600098,-0.45166,-3,-3,-2,-4,0,-4,3,-18,3720
-2.00118,-1.04561,0.380289,28,-29.6875,8.375,-0.0996094,-0.452637,-0.506348,1,1,-3,-1,-1,3,-1,13,3737
-2.03447,-1.02218,0.420425,16.5,-42.625,3.0625,-0.183594,-0.453125,-0.619141,-1,-3,1,2,9,3,-1,-1,3755
-2.06173,-0.986055,0.454489,18.875,-43.25,19.1875,-0.348145,-0.642578,-0.769531,1,-3,-1,-2,-3,-2,-4,-1,3772
-2.06724,-0.943162,0.474764,51.125,-29,42.75,-0.172852,-0.782715,-0.964844,4,-4,-1,-8,-6,-1,15,-3,3789
-2.06253,-0.904573,0.488167,67.6875,-23.9375,61.5625,0.269531,-0.650391,-0.975586,7,-2,-2,-5,-6,-8,11,-15,3806
-2.05115,-0.860795,0.50216,82.75,-46.5,83,0.293457,-0.543457,-0.762207,6,-3,-3,-6,-17,-8,8,-1,3823
-2.02906,-0.817127,0.509013,81.25,-62.5625,102.5,0.572266,-0.736816,-0.68457,-5,1,1,9,2,-6,-30,5,3841
-2.02906,-0.817127,0.509013,81.25,-62.5625,102.5,0.572266,-0.736816,-0.68457,-8,-5,-7,-8,1,-6,-7,-1,3857
-2.01412,-0.790187,0.520631,68.125,-67.5625,90.4375,1.84375,-1.04443,-0.53418,8,-2,-6,-5,-9,-2,12,0,3873
-1.9911,-0.71934,0.539158,102.25,-120.313,167.938,2.76025,-0.953613,-0.269043,6,-6,8,-3,-7,-18,16,-15,3890
-1.9543,-0.628196,0.581558,181.375,-189.75,203.5,3.11328,-0.953613,-0.0322266,-19,1,-5,5,2,4,-27,2,3907
-1.90778,-0.538589,0.621824,197.063,-180.813,206.188,2.98389,-0.870117,0.321777,16,3,5,8,14,0,38,-22,3924
-1.85531,-0.385062,0.690454,81.5,-135.5,169.125,2.09326,-0.286621,0.254883,-4,-1,3,-4,-19,-15,7,-5,3978
-1.85327,-0.325937,0.719647,34.875,-122.875,140.625,1.83203,-0.224609,0.183105,-7,0,0,-2,-2,-4,-11,0,3995
-1.85437,-0.270691,0.748629,21.1875,-120.5,129.813,1.49707,-0.0151367,0.207031,-4,1,3,0,4,-1,-8,3,4012
-1.85113,-0.22606,0.778834,27.3125,-123.125,120.5,1.28076,0.0629883,0.208008,-6,2,0,-6,-5,-2,-1,0,4029
-1.84113,-0.181503,0.80943,43.5,-122.438,115.5,0.970215,0.146973,0.197754,2,-1,0,0,-2,7,-2,1,4046
-1.82354,-0.139775,0.839565,61.25,-116.438,102.75,0.530273,0.22998,0.223145,3,-1,1,-1,1,5,3,-5,4063
-1.79975,-0.107975,0.867634,75.5,-100.688,74.5,0.284668,0.355469,0.239746,3,-1,-2,1,1,-3,4,1,4080
-1.79975,-0.107975,0.867634,75.5,-100.688,74.5,0.284668,0.355469,0.239746,1,2,0,-2,-1,-8,-14,-1,4097
-1.76706,-0.09223,0.889241,87.4375,-74,44.375,0.147461,0.567871,0.296875,2,0,1,0,10,1,7,-2,4114
-1.73572,-0.0805776,0.903102,73.125,-46.3125,25.25,-0.0625,0.730957,0.425781,-4,-2,-2,6,-4,-4,0,-5,4131
-1.71497,-0.0801559,0.906631,34.375,-11.5,-6.75,-0.169434,0.934082,0.521484,-4,-2,-1,0,1,7,7,6,4147
-1.70358,-0.0958863,0.901521,5.4375,19.125,-47.625,-0.195801,1.16846,0.553223,-13,-8,-6,-2,9,-2,-25,4,4163
-1.70261,-0.136305,0.888528,-21.6875,47.8125,-98.5,0.012207,1.1626,0.460938,-2,-10,2,-9,3,5,13,-6,4180
-1.70261,-0.136305,0.888528,-21.6875,47.8125,-98.5,0.012207,1.1626,0.460938,-21,4,-8,-8,-1,0,-17,2,4197
-1.72836,-0.195725,0.870774,-86.5625,72.0625,-152.688,0.316406,1.02148,0.421875,9,3,3,2,3,0,6,-2,4215
-1.76811,-0.280026,0.846371,-130.563,107.188,-211.5,0.651367,0.783691,0.176758,15,-4,-3,-15,-18,0,14,-9,4232
-1.86532,-0.516069,0.764667,-197.313,213.188,-309.188,3.32471,-0.283203,-0.0859375,-9,1,-9,5,10,0,-37,1,4278
-1.89836,-0.635668,0.718766,-166.688,210.25,-292.938,3.33252,-0.754395,-0.0424805,15,2,1,10,13,-1,24,-5,4295
-1.90285,-0.744415,0.681649,-80.75,178.625,-268.375,3.56738,-0.88916,-0.411621,-16,-2,3,7,-4,-1,-5,5,4312
-1.90234,-0.832919,0.65163,-59.8125,140.063,-220.313,3.19141,-0.489258,-0.279297,-2,1,3,4,3,-5,-8,-2,4329
-1.91809,-0.903378,0.637294,-76.3125,92.0625,-181.688,2.65527,-0.427734,-0.375,5,3,8,0,6,-4,5,-9,4346
-1.9797,-0.96151,0.636818,-175,59,-136.5,1.98682,0.00537109,-0.286133,5,4,0,-2,3,2,4,-3,4364
-2.06334,-0.997722,0.636033,-240,46.0625,-86.625,1.42285,-0.407715,-0.404297,-8,-2,5,0,-17,-6,-10,0,4381
-2.06334,-0.997722,0.636033,-240,46.0625,-86.625,1.42285,-0.407715,-0.404297,1,-1,4,-4,-4,1,7,11,4398
-2.11992,-1.01597,0.621648,-197.813,45.6875,-37.5625,1.05518,-0.744629,-0.364258,-6,-3,1,-3,-4,-3,-2,-3,4415
-2.14977,-1.02541,0.60599,-124.25,37.1875,-15.9375,0.755859,-0.76416,-0.467773,-1,-2,-2,-6,-5,3,-6,3,4431
-2.16402,-1.01373,0.597609,-57.5625,13.25,12.9375,0.477539,-0.615234,-0.530273,-3,-2,-2,-3,4,6,-3,2,4448
-2.16737,-0.987151,0.597622,-4.375,-16.5,38.9375,0.132324,-0.476074,-0.498047,4,1,1,-1,4,1,25,14,4465
-2.1777,-0.949121,0.611616,12.875,-43.875,47.75,-0.202148,-0.404785,-0.567383,-7,-1,-4,1,-1,-4,-8,-7,4482
-2.19154,-0.90272,0.631614,19.5,-57.125,52.125,-0.363281,-0.453613,-0.705566,0,-1,-1,-3,-5,0,1,7,4499
-2.19154,-0.90272,0.631614,19.5,-57.125,52.125,-0.363281,-0.453613,-0.705566,-2,-1,-1,-4,-5,-4,-7,-6,4516
-2.19995,-0.84911,0.646789,23.1875,-58.1875,62.125,-0.382324,-0.618652,-0.838867,-4,-1,-4,-2,-2,-3,-15,-1,4533
-2.11629,-0.668787,0.636994,99.0625,-48.5,123.313,0.717773,-0.613281,-0.484863,-4,-2,2,-17,-19,5,7,5,4615
-2.07306,-0.634895,0.621548,95.8125,-25.625,112.188,1.63135,-0.89502,-0.389648,-21,-6,-14,1,-3,-8,-35,6,4632
-2.03675,-0.577381,0.616364,95.5625,-65.9375,151.375,2.64551,-1.00732,-0.23584,-4,-9,-13,-10,-11,-6,0,0,4649
-1.99513,-0.498196,0.627995,136.313,-123.438,192.438,3.22559,-1.04248,-0.172852,0,-6,-6,-3,6,4,-10,-3,4666
-1.948,-0.412333,0.646849,158.813,-140.813,208.063,2.79541,-1.06982,0.146973,8,-1,1,3,-4,4,29,-5,4683
-1.948,-0.412333,0.646849,158.813,-140.813,208.063,2.79541,-1.06982,0.146973,4,2,4,2,11,5,0,3,4700
-1.9029,-0.264804,0.686839,49.8125,-112.75,161,1.96924,-0.419434,0.0761719,0,-2,-3,6,4,-7,-5,-4,4717
-1.9029,-0.264804,0.686839,49.8125,-112.75,161,1.96924,-0.419434,0.0761719,-1,-2,-4,-7,9,6,-10,10,4733
-1.89757,-0.211883,0.705676,27.875,-98.6875,126.125,1.87842,-0.236816,0.0576172,5,-2,-1,-3,-7,3,8,9,4750
-1.89317,-0.162297,0.726536,24,-101,116.188,1.68555,-0.0419922,0.0605469,-1,-2,-1,-5,6,-3,-6,-1,4767
-1.89317,-0.162297,0.726536,24,-101,116.188,1.68555,-0.0419922,0.0605469,4,1,-1,-2,-5,-6,5,-5,4784
-1.8658,-0.0808606,0.781024,53.625,-118.438,93.0625,0.785156,0.132813,0.103516,-1,0,0,-4,-4,2,0,0,4802
-1.8658,-0.0808606,0.781024,53.625,-118.438,93.0625,0.785156,0.132813,0.103516,-2,-1,-1,-2,-2,2,-3,-2,4819
-1.82377,-0.0202826,0.84562,63.375,-111.813,60.875,0.542969,0.465332,0.169434,-1,0,-3,-1,3,9,-3,-3,4836
-1.82377,-0.0202826,0.84562,63.375,-111.813,60.875,0.542969,0.465332,0.169434,-2,4,-2,0,-3,0,-4,-1,4852
-1.79217,-0.00129795,0.875076,73,-97.5,42.75,0.149414,0.522461,0.395996,-4,-2,-1,1,-7,-13,0,0,4870
-1.7084,-0.050541,0.865861,-51.1875,107.438,-122.375,-0.133789,1.20215,0.517578,-8,-10,-4,-1,1,-4,1,-4,4945
-1.73754,-0.124794,0.829865,-94.8125,131.75,-184.25,0.48584,1.07227,0.324219,-22,-24,-8,-9,-8,-5,8,-2,4962
-1.76845,-0.21459,0.787209,-109.313,165.313,-231.5,1.46387,0.834961,0.059082,15,25,7,20,22,5,-24,2,4980
-1.76845,-0.21459,0.787209,-109.313,165.313,-231.5,1.46387,0.834961,0.059082,-7,-4,4,-13,-22,-23,28,-18,4998
-1.78465,-0.311236,0.731493,-88.0625,207.688,-239.563,2.51465,-0.516113,-0.219727,-4,8,-6,-9,-18,-4,-46,7,5015
-1.82337,-0.411411,0.678326,-164.875,205.25,-246.688,3.09814,-1.08057,0.108887,-49,-47,-26,-4,0,-9,-36,-4,5033
-1.82894,-0.504688,0.635479,-70.4375,174.063,-230.938,3.4707,-0.994141,-0.155273,9,0,2,31,6,3,33,-9,5050
-1.84014,-0.588831,0.595862,-91.125,156.688,-207.563,3.09814,-0.397461,-0.168457,6,8,-5,21,16,9,-6,6,5068
-1.86261,-0.671851,0.562576,-120.688,139.75,-207.563,2.59814,-0.320313,-0.169922,9,13,8,1,-4,2,2,0,5085
-1.89403,-0.749924,0.53276,-146.125,129.438,-193.75,2.27002,-0.251953,-0.130371,-6,-7,3,-7,-4,-8,1,-25,5102
-1.89403,-0.749924,0.53276,-146.125,129.438,-193.75,2.27002,-0.251953,-0.130371,9,-1,3,-10,0,-3,-6,14,5119
-1.93725,-0.82211,0.508466,-173,116.375,-177.875,2.2168,-0.232422,-0.380371,-5,1,-1,-9,-8,2,-8,5,5136
-2.00255,-0.870387,0.502962,-196.375,62.25,-113,1.61768,-0.431641,-0.466797,3,2,1,1,8,1,1,7,5153
-2.05627,-0.892492,0.503994,-149.813,29.75,-58.875,0.983887,-0.799316,-0.615723,-1,1,3,2,5,4,4,-5,5170
-2.09519,-0.902312,0.507433,-103.563,11.5625,-33.5,0.48584,-0.743164,-0.461914,0,-5,-3,5,3,-4,-4,-8,5187
-2.09519,-0.902312,0.507433,-103.563,11.5625,-33.5,0.48584,-0.743164,-0.461914,1,-3,0,4,-1,-2,6,4,5204
-2.17494,-0.827836,0.586295,10.25,-42.75,3.25,-0.344238,-0.679688,-0.63623,1,0,0,-1,6,0,11,12,5278
-2.18122,-0.787671,0.607489,33.5625,-57.625,23.1875,-0.343262,-0.687988,-0.665039,-2,-1,-3,-3,-3,-7,-8,-5,5295
-2.175,-0.744735,0.624235,63.4375,-62.0625,49.875,0.0239258,-0.691406,-0.770996,-2,-1,-3,-3,-3,-7,-8,-5,5312
-2.15398,-0.703397,0.631068,90.5,-50.6875,76.25,0.331055,-0.652344,-0.817383,-3,0,4,-10,-12,-5,9,-7,5329
-2.10804,-0.661139,0.622601,118.688,-44.6875,110.063,0.309082,-0.583496,-0.552246,-4,-1,6,11,4,-5,-37,4,5346
-2.04902,-0.618234,0.602543,134.875,-20,130.813,0.679688,-0.742676,-0.394043,-4,1,2,-7,2,-2,-22,0,5363
-2.04902,-0.618234,0.602543,134.875,-20,130.813,0.679688,-0.742676,-0.394043,-8,-2,-17,-2,4,-7,-25,-13,5381
-2.01699,-0.575827,0.599134,86.625,-54.75,128.75,1.85352,-0.802734,-0.424805,-5,-1,-9,-4,7,0,4,6,5398
-1.98053,-0.502697,0.597423,102,-83.1875,192.438,2.6792,-0.848145,-0.211426,9,0,-2,-7,-5,5,6,2,5415
-1.94044,-0.418769,0.614294,136.188,-131.5,206.125,3.15332,-0.796387,-0.0302734,-12,3,0,7,2,4,4,-2,5431
-1.8992,-0.333988,0.632596,137.625,-129.25,211.875,2.86182,-0.823242,0.124023,-5,3,-4,-4,4,-2,-20,4,5449
-1.88039,-0.252959,0.652892,70.6875,-125.75,203.063,2.4375,-0.75,0.119629,-1,-2,-5,-2,4,0,-8,1,5466
-1.85942,-0.179582,0.675915,74.3125,-123.375,182,2.22168,-0.608887,0.337891,-6,-2,-2,5,5,3,-4,7,5483
-1.85942,-0.179582,0.675915,74.3125,-123.375,182,2.22168,-0.608887,0.337891,-5,-3,0,0,-1,-5,0,-2,5500
-1.83626,-0.116621,0.699072,75.75,-112.75,155.313,2.11084,-0.239258,0.130859,-5,-3,-3,-7,-4,0,-2,9,5518
-1.82632,-0.0577871,0.721515,34.0625,-105.438,146.625,1.68311,0.0395508,0.180176,1,0,3,-2,-6,-5,-1,-1,5536
-1.73856,0.137983,0.875063,25.875,-55.1875,21.5,-0.197754,0.788086,0.42334,10,7,0,-2,1,0,3,-6,5642
-1.73856,0.137983,0.875063,25.875,-55.1875,21.5,-0.197754,0.788086,0.42334,-9,-22,-6,2,0,0,2,0,5659
-1.72627,0.150497,0.886641,6.5625,-29.3125,-3.625,-0.365234,0.991699,0.52002,-1,-10,1,-4,-3,1,8,-10,5677
-1.71847,0.146429,0.887314,-10.5625,8.75,-38.375,-0.268066,0.895508,0.632813,-6,-7,-1,2,2,2,-12,-3,5695
-1.72301,0.117073,0.869843,-28.5,65.0625,-77,0.0537109,0.655273,0.435547,-6,11,9,-1,1,-3,-8,1,5712
-1.75452,0.0725273,0.843851,-87.4375,93.625,-108.5,0.352539,0.675781,0.349609,1,-3,-7,-12,-8,-2,7,-7,5729
-1.79941,0.00369615,0.807404,-126.688,140.25,-158.125,0.800293,0.469727,0.256836,-7,4,-11,4,6,-2,-24,7,5745
-1.85212,-0.0905093,0.765037,-156.25,185.625,-231.063,2.21289,0.191895,0.0219727,21,16,1,-2,-1,1,32,-5,5763
-1.85212,-0.0905093,0.765037,-156.25,185.625,-231.063,2.21289,0.191895,0.0219727,3,-7,-11,2,-7,-4,-2,-10,5780
-1.89267,-0.203105,0.720646,-134.813,216.375,-271.063,3.02246,-0.321289,0.0805664,-9,0,-3,-2,-1,-3,-27,9,5797
-1.91869,-0.314352,0.677027,-107,218.688,-261.5,3.2793,-0.583008,0.0341797,-8,-8,-4,-2,-2,-1,-3,-3,5814
-1.93148,-0.419773,0.630386,-84.625,222.188,-240.313,3.56738,-0.84668,-0.34375,-4,-3,2,1,1,-3,-10,1,5831
-1.94167,-0.514094,0.586508,-85.75,201.75,-212.063,3.04688,-0.837402,-0.358398,-4,0,4,0,-2,-11,-2,-1,5849
-1.95444,-0.591945,0.555265,-83.5,153,-179.438,2.43164,-0.821777,-0.342773,-3,1,6,4,12,-4,-5,4,5865
-1.98329,-0.663298,0.53654,-113,112.938,-154,1.81348,-0.464355,-0.304688,-7,-3,2,-6,-4,10,-4,0,5883
-1.98329,-0.663298,0.53654,-113,112.938,-154,1.81348,-0.464355,-0.304688,4,-2,4,-4,-7,-7,5,7,5900
-2.10199,-0.773203,0.502409,-40.6875,21.0625,-20.5,0.339355,-0.564453,-0.40625,-5,-3,-4,-2,-3,-1,-2,-1,5962
-2.10199,-0.773203,0.502409,-40.6875,21.0625,-20.5,0.339355,-0.564453,-0.40625,1,0,-1,-1,3,1,-1,2,5979
-2.11469,-0.766748,0.506768,-19.375,-0.75,-0.125,0.166016,-0.385254,-0.424805,-2,-3,0,-3,1,13,4,3,5996
-2.12146,-0.753337,0.513111,5.375,-4.8125,4.3125,-0.122559,-0.343262,-0.493652,-5,-1,-3,-7,-9,-9,-5,-7,6014
-2.13033,-0.727319,0.52789,20,-21.5,5,-0.452637,-0.486816,-0.689941,-4,0,-1,-4,-4,-7,0,-6,6030
-2.14327,-0.690542,0.546191,21.125,-31.875,14.8125,-0.543945,-0.644043,-0.947754,4,-1,-3,0,0,3,7,2,6048
-2.15182,-0.655546,0.557903,21.5,-32,37.1875,0.0283203,-0.793945,-1.06348,-5,-2,-5,-3,2,-2,-6,8,6064
-2.15182,-0.655546,0.557903,21.5,-32,37.1875,0.0283203,-0.793945,-1.06348,2,-3,-4,-7,-8,1,9,-1,6081
-2.15065,-0.619393,0.569498,48.5625,-47.4375,58,0.349609,-0.757813,-1.02979,7,-2,1,5,2,-3,13,-8,6098
-2.13541,-0.577296,0.576902,71.375,-65.9375,89.6875,0.47998,-0.694824,-0.753906,5,-1,-3,6,7,-6,-9,-4,6115
-2.11449,-0.535986,0.581056,68.4375,-74,102.938,1.0293,-0.621582,-0.563965,-4,-1,-10,2,7,0,3,-1,6132
-2.09128,-0.491447,0.58703,75,-77.5625,102.313,2.07422,-0.785156,-0.442383,0,-6,-16,-10,-6,-10,4,-5,6149
-2.06026,-0.416605,0.596393,100.375,-125.063,175.875,2.31885,-1.03906,-0.149414,-10,6,-6,16,7,-12,-16,8,6165
-2.00724,-0.321041,0.62349,180.188,-186.938,213,2.97949,-0.987305,0.0942383,-6,-4,-7,3,10,9,-23,7,6182
-2.00724,-0.321041,0.62349,180.188,-186.938,213,2.97949,-0.987305,0.0942383,7,0,13,-10,-13,-1,30,-11,6199
-1.94398,-0.228234,0.650181,201.938,-172.813,215.688,2.87939,-0.811035,0.0522461,3,-1,9,3,-7,-1,17,-17,6216
-1.81545,0.0706605,0.791468,104.938,-140.25,105.313,1.23242,0.147949,0.205078,2,1,1,-3,-4,1,-4,-1,6302
-1.81545,0.0706605,0.791468,104.938,-140.25,105.313,1.23242,0.147949,0.205078,-1,-1,1,0,-7,-7,-1,4,6320
-1.76748,0.108015,0.831632,122.063,-137.875,93.125,0.882813,0.38623,0.380859,-1,-1,1,0,-7,-7,-1,4,6337
-1.72396,0.137755,0.865933,106.125,-111.313,74.1875,0.53125,0.575684,0.454102,-3,-2,-5,-2,-6,1,-5,1,6354
-1.68542,0.156186,0.894057,67.625,-82.6875,50.4375,0.243164,0.671387,0.543457,-8,-4,-4,-2,0,0,-5,0,6372
-1.65783,0.169752,0.914826,31.25,-55.75,29.375,0.081543,0.737305,0.640137,5,3,3,-2,-6,-2,-2,-3,6389
-1.6348,0.178122,0.927206,17.375,-28.125,7.5,-0.0483398,0.875977,0.699219,-12,-5,-4,-3,2,0,-3,-1,6406
-1.62858,0.174371,0.929367,-16.75,1.375,-25.125,-0.0541992,0.900391,0.558594,5,-2,-1,-5,-1,0,6,-3,6423
-1.63925,0.158457,0.920646,-58,33.125,-51.1875,0.0258789,0.839355,0.535645,0,9,-1,-7,0,1,3,-1,6441
-1.63925,0.158457,0.920646,-58,33.125,-51.1875,0.0258789,0.839355,0.535645,-14,-10,-5,3,5,1,-16,7,6458
-1.67738,0.130954,0.900352,-106.438,65.125,-71.75,0.195313,0.789063,0.402832,-5,-6,0,-9,-8,-1,12,-5,6476
-1.72805,0.0893958,0.871708,-138.75,96.3125,-102.75,0.341797,0.665527,0.274902,-2,-8,1,-11,-9,-4,7,-1,6493
-1.7918,0.0263206,0.833411,-174.75,139,-144.5,0.760742,0.514648,0.0214844,-7,4,-9,-8,-8,-1,-8,0,6510
-1.85758,-0.0599651,0.788379,-190.5,187.125,-206.938,3.18701,0.292969,-0.42627,9,-8,-12,8,4,10,9,-14,6527
-1.91871,-0.168716,0.724264,-196.625,271.125,-239.563,2.69678,-0.636719,-0.217773,-10,-6,-15,-4,0,-9,-6,-4,6544
-1.95867,-0.273262,0.666755,-150.563,258.313,-221.75,3.29492,-0.951172,-0.212891,7,1,-3,15,-9,-6,-14,-1,6561
-1.94389,-0.45541,0.565612,-11.25,204.063,-186.063,2.90039,-0.520996,-0.306152,1,1,14,-4,-3,-12,12,5,6615
-1.93593,-0.530252,0.530433,-24.875,160.313,-167.938,2.78223,-0.135254,-0.495605,1,1,14,-4,-3,-12,12,5,6632
-1.96797,-0.592412,0.513659,-117.375,103.875,-150.25,2.07178,-0.0708008,-0.583496,-3,0,3,-2,-3,-2,-4,-2,6650
-2.04508,-0.638383,0.517744,-207.188,46.125,-110.25,1.23438,-0.18457,-0.657227,-1,1,-1,1,2,2,-1,-9,6666
-2.12234,-0.661776,0.527414,-201.875,14.25,-66.25,0.820801,-0.584961,-0.603027,4,0,-3,1,-10,-3,1,2,6683
-2.12234,-0.661776,0.527414,-201.875,14.25,-66.25,0.820801,-0.584961,-0.603027,-5,-1,-2,-3,-3,-7,-6,-3,6701
-2.1733,-0.672668,0.531087,-139.625,13.375,-35.5625,0.453613,-0.929199,-0.612305,1,-1,-3,0,5,2,0,7,6717
-2.18843,-0.666817,0.530014,-48.6875,11.25,-16.5625,0.180664,-0.916504,-0.579102,-2,-2,-5,-3,6,1,-6,-2,6734
-2.18399,-0.651134,0.536373,28.125,-13.9375,0.3125,0.0292969,-0.689941,-0.57666,-3,0,-3,0,16,3,-8,-15,6751
-2.17283,-0.619852,0.54963,66.4375,-45.5625,27.375,-0.14209,-0.549316,-0.636719,10,0,-4,-3,1,-3,13,0,6768
-2.16434,-0.573571,0.566847,69.125,-69.8125,50.9375,-0.379883,-0.487305,-0.674316,-6,1,0,-2,-6,0,-7,-3,6786
-2.16601,-0.523983,0.583537,39.625,-76.625,61.1875,-0.285156,-0.564941,-0.776367,1,-1,-2,-8,-4,2,2,12,6803
-2.16601,-0.523983,0.583537,39.625,-76.625,61.1875,-0.285156,-0.564941,-0.776367,5,-1,-3,1,-2,-6,8,-9,6819
-2.17345,-0.488567,0.592696,11.25,-57.3125,62.6875,0.295898,-0.711426,-0.873047,-1,1,-1,-2,-6,-3,-4,-2,6837
-2.17225,-0.452095,0.587277,15.5625,-38.25,97.25,0.427246,-0.621094,-0.795898,4,-6,-1,-6,-3,-2,7,-5,6854
-2.151,-0.405133,0.574615,46.6875,-47.25,130.375,0.374512,-0.678223,-0.530273,-10,1,-4,10,7,-9,-13,9,6871
-1.96845,-0.152499,0.593481,191.375,-152,197.25,3.31445,-0.958008,-0.0561523,4,-4,-1,-8,-18,1,11,-1,6958
-1.90542,-0.0641071,0.619512,188.625,-160.375,210.25,2.7334,-0.946777,0.162109,-2,-1,6,3,1,-13,1,-2,6976
-1.86397,0.0148487,0.647248,120.813,-145.563,190.625,2.12549,-0.614258,0.183594,2,0,2,3,-1,-3,12,-1,6993
-1.83977,0.0785674,0.673111,65.875,-121.688,154.875,1.73975,-0.313965,0.184082,1,-1,1,3,-14,-3,-6,4,7010
-1.82658,0.132358,0.695484,31,-101.563,132.25,1.78174,-0.164551,0.151367,6,-1,-1,-1,-1,2,-1,-3,7026
-1.80862,0.186777,0.718545,40.6875,-101.438,135.5,1.49072,0.0644531,0.216309,0,-2,0,-3,-8,-1,1,-1,7044
-1.80862,0.186777,0.718545,40.6875,-101.438,135.5,1.49072,0.0644531,0.216309,1,0,1,-1,-1,1,3,0,7061
-1.77972,0.234685,0.74787,62.5,-113.125,130,0.934082,0.151367,0.201172,0,2,0,-4,0,1,-5,-2,7079
-1.75041,0.27563,0.783108,55.9375,-119.313,103.438,0.526367,0.27002,0.202637,3,-2,-1,1,-4,-14,2,2,7097
-1.72427,0.304467,0.818826,43.125,-110.625,69.5625,0.38916,0.375977,0.200195,3,-2,-1,1,-4,-14,2,2,7115
-1.69496,0.325082,0.852461,36.9375,-92.8125,43.625,0.125488,0.449707,0.323242,-3,1,-1,-4,-2,-4,0,-2,7133
-1.66714,0.340153,0.880659,30.8125,-71.125,20.0625,-0.0332031,0.531738,0.411133,-1,-3,0,-2,-6,-2,4,-1,7150
-1.64235,0.349844,0.899812,22.1875,-40.625,-4.875,-0.199219,0.666992,0.526855,0,4,2,1,-3,0,4,-4,7168
-1.62288,0.352357,0.908003,15.5,-8.25,-32.875,-0.327637,0.763184,0.546387,1,-3,-1,-11,-8,2,10,3,7185
-1.62288,0.352357,0.908003,15.5,-8.25,-32.875,-0.327637,0.763184,0.546387,1,-7,-2,1,4,-1,-10,0,7201
-1.6246,0.33677,0.901061,-23.4375,31.5,-71.375,-0.116699,0.922852,0.446289,-9,0,-1,1,5,-9,-20,-3,7218
-1.79066,0.0594116,0.751298,-156.688,186.625,-233.438,3.0166,-0.311035,-0.107422,2,2,-18,7,1,-6,-4,-1,7291
-1.84223,-0.0363194,0.704158,-146.063,197.938,-233.5,3.06689,-1.09033,-0.0410156,-13,-7,-12,-8,-9,-1,-6,2,7308
-1.84223,-0.0363194,0.704158,-146.063,197.938,-233.5,3.06689,-1.09033,-0.0410156,10,-3,0,4,-5,0,19,-3,7325
-1.8685,-0.121722,0.661307,-85.375,186.125,-200.438,3.25146,-1.05078,0.0888672,1,0,7,8,6,-3,6,2,7342
-1.8818,-0.201131,0.62012,-57.0625,179.375,-182.375,3.06885,-0.723145,-0.0966797,-1,3,7,4,10,13,-2,2,7358
-1.90548,-0.272268,0.583775,-92.5,160.813,-161.438,2.67432,-0.393066,-0.0981445,0,-2,7,-3,0,-1,10,-9,7375
-1.94439,-0.337383,0.552536,-138.125,144.688,-145.438,2.48682,-0.405762,-0.19043,6,2,6,-4,5,1,-8,9,7392
-2.00094,-0.395182,0.526723,-188.5,128.625,-125.25,2.09033,-0.418457,-0.314453,0,0,1,-4,-7,4,-3,-5,7409
-2.06458,-0.438945,0.510144,-200.875,88,-78.75,1.35889,-0.619141,-0.391602,5,1,1,6,-11,-9,0,-4,7427
-2.06458,-0.438945,0.510144,-200.875,88,-78.75,1.35889,-0.619141,-0.391602,-1,-2,2,4,0,3,6,-1,7443
-2.10834,-0.464441,0.494371,-144.25,68.6875,-37.6875,0.86377,-0.762207,-0.517578,-1,-1,4,0,7,-4,0,11,7460
-2.13689,-0.470635,0.480167,-98.5625,48.625,-8.125,0.275391,-0.825684,-0.554199,-10,-1,-2,-3,-3,-12,-31,-5,7477
-2.14498,-0.457947,0.47254,-24.0625,16.9375,17.625,-0.0537109,-0.654785,-0.600586,0,-2,-4,0,-3,0,4,2,7494
-2.13891,-0.439367,0.471844,35.9375,-3.625,26.1875,-0.121582,-0.456055,-0.652832,1,-1,-4,-2,2,2,2,0,7511
-2.13644,-0.419054,0.480485,42.6875,-20.5625,11.875,-0.292969,-0.339355,-0.686035,-2,1,-3,0,-3,-4,-4,-5,7528
-2.14519,-0.393217,0.496972,26.5,-37,3.375,-0.532227,-0.267578,-0.786133,0,-2,-2,4,5,0,3,-4,7545
-2.16141,-0.300258,0.581589,64,-66.125,46.3125,0.651367,-0.634277,-0.681641,-12,-3,3,6,4,0,-31,9,7642
-2.12848,-0.282277,0.592282,100.563,-61.1875,38.6875,1.14111,-0.967773,-0.456543,12,-4,1,-6,-3,4,30,-8,7659
-2.09288,-0.240857,0.616982,120.5,-119.5,66.75,2.42969,-1.11426,-0.345703,-1,-2,-6,-7,-10,2,24,-3,7675
-2.09288,-0.240857,0.616982,120.5,-119.5,66.75,2.42969,-1.11426,-0.345703,1,-4,-3,-8,0,1,11,-10,7693
-1.95499,-0.0718071,0.676534,234.313,-193.688,188.375,2.99512,-1.13818,0.233887,2,3,4,-5,6,1,12,-6,7710
-1.95499,-0.0718071,0.676534,234.313,-193.688,188.375,2.99512,-1.13818,0.233887,-3,1,-1,15,11,4,-6,6,7728
-1.90162,0.00541153,0.700431,154.813,-142,183.25,2.70557,-0.790039,0.26416,0,1,0,9,10,2,-3,-8,7744
-1.88063,0.0706071,0.715805,58.5,-100.625,163.75,2.34375,-0.335938,0.294922,-8,-1,3,4,0,-10,-6,-1,7761
-1.87469,0.129782,0.728538,13.6875,-85.75,150.563,2.13281,-0.425781,0.152344,-2,0,1,1,-1,-4,-5,-2,7777
-1.87126,0.188276,0.741994,3.1875,-86.375,148.5,1.72266,-0.122559,0.0761719,1,0,1,-6,-5,4,1,11,7794
-1.86496,0.23723,0.761043,5.4375,-98.375,140,1.35889,0.0551758,0.0703125,1,1,-1,1,1,1,-2,6,7810
-1.85127,0.28624,0.785701,19.1875,-109.375,131.25,1.04688,0.125488,0.141113,0,-1,-1,0,0,3,-4,0,7827
-1.82496,0.332138,0.81384,49.4375,-111.625,118.125,0.853516,0.285645,0.154297,-4,-1,3,0,12,8,7,4,7844
-1.82496,0.332138,0.81384,49.4375,-111.625,118.125,0.853516,0.285645,0.154297,-4,0,0,0,0,-5,-4,-2,7860
-1.78739,0.37123,0.843479,77.125,-104.813,96.3125,0.541016,0.412109,0.155762,-1,0,0,-1,-1,-7,0,-8,7878
-1.73969,0.404038,0.872689,94.1875,-88.875,71.625,0.151367,0.555664,0.268066,1,5,2,2,1,-2,-3,-2,7895
-1.73276,0.366296,0.883105,-124.188,90.25,-138,0.537598,0.552734,0.364746,-23,-7,-10,-9,-5,2,-16,12,8005
-1.73276,0.366296,0.883105,-124.188,90.25,-138,0.537598,0.552734,0.364746,11,1,-3,5,5,2,27,-9,8021
-1.79975,0.292736,0.846643,-158.188,134.375,-169.625,1.19434,0.225586,0.0849609,-16,-8,-4,7,-4,-3,-4,-12,8038
-1.87542,0.192319,0.797758,-183.063,207.563,-241.938,2.88232,-0.512695,-0.25293,4,-2,-16,-5,-8,-13,21,-15,8056
-1.94766,0.093316,0.739977,-183.375,249.438,-212.875,3.68066,-1.12646,-0.043457,-6,3,-14,1,0,-15,-31,-13,8073
-1.99551,0.00348816,0.675449,-128.188,270.875,-165.063,3.55176,-1.33838,-0.211426,3,-4,3,6,-2,7,25,-2,8090
-2.00388,-0.0753415,0.628354,-29.125,216.813,-149.063,2.9292,-1.2373,-0.428711,4,4,12,2,22,-4,-5,5,8106
-1.99753,-0.140634,0.595916,8,161.625,-131.75,2.54053,-0.638672,-0.595215,2,2,6,-3,1,-3,-9,5,8123
-1.99753,-0.140634,0.595916,8,161.625,-131.75,2.54053,-0.638672,-0.595215,3,1,4,-9,-7,-4,1,13,8139
-2.02019,-0.197159,0.578256,-73.375,114.063,-125.688,2.05762,-0.149414,-0.497559,0,0,4,-1,-10,-4,2,-3,8156
-2.07819,-0.242178,0.5716,-170.25,75.9375,-105.75,1.67871,-0.237305,-0.608398,-1,-1,2,-2,-15,5,-6,3,8173
-2.14433,-0.284653,0.564556,-191.438,72.75,-81.5,1.1875,-0.765625,-0.730957,3,0,3,8,1,-3,12,-7,8190
-2.18633,-0.315325,0.556182,-128.563,63.6875,-54.375,0.780273,-0.922363,-0.568848,1,-3,-3,-4,-3,-1,-2,1,8208
-2.18633,-0.315325,0.556182,-128.563,63.6875,-54.375,0.780273,-0.922363,-0.568848,0,-2,-1,0,2,-2,-11,0,8225
-2.19946,-0.335433,0.550501,-44.25,41.4375,-31.875,0.421387,-0.730957,-0.504395,-9,-1,-6,-5,0,-2,-5,1,8242
-2.1947,-0.33962,0.552974,24.3125,6.8125,-16.0625,0.169922,-0.479004,-0.504395,-6,-1,1,3,2,-4,-17,0,8259
-2.19244,-0.198068,0.590948,-4.125,-41.125,80.3125,0.529785,-0.571777,-0.754395,-5,-2,0,-4,-6,-5,10,-10,8363
-2.18636,-0.156883,0.585,18,-55.625,108.188,0.252441,-0.402344,-0.561523,-3,-3,-2,-6,-5,1,-4,-1,8380
-2.17762,-0.111901,0.58073,26.75,-64.375,113.813,0.169434,-0.609863,-0.659668,-5,-1,6,7,2,3,14,-12,8398
-2.17717,-0.0746366,0.57673,0.5,-59.875,106.5,0.936035,-0.889648,-0.629395,12,-5,-7,6,8,-5,9,-9,8415
-2.16304,-0.0370371,0.577068,40.5625,-61.5625,88.375,2.32178,-0.96875,-0.508301,-8,-8,-13,-25,-5,-7,-21,1,8432
-2.11433,0.0223913,0.580022,139.688,-98.6875,138.938,2.44629,-1.01025,-0.459473,2,5,-6,2,-4,4,16,2,8450
-2.11433,0.0223913,0.580022,139.688,-98.6875,138.938,2.44629,-1.01025,-0.459473,2,-3,-10,11,13,1,-14,4,8467
-1.98383,0.171455,0.629914,199.438,-168.5,163.313,2.41846,-1.30078,-0.0112305,-4,2,3,-1,0,-3,-6,1,8484
-1.98383,0.171455,0.629914,199.438,-168.5,163.313,2.41846,-1.30078,-0.0112305,-6,1,9,3,2,2,-6,-4,8501
-1.92567,0.238382,0.665355,145.813,-164.563,140.563,2.17725,-0.906738,-0.0341797,7,0,6,-3,-4,-4,15,-5,8518
-1.88994,0.291984,0.700359,75.6875,-142.25,113.063,2.01123,-0.480957,0.103516,2,0,2,-1,-3,-4,-3,-3,8536
-1.86509,0.337377,0.734013,41.3125,-126.688,96.1875,1.7876,-0.378418,0.130371,-4,-2,1,1,-1,2,-7,0,8553
-1.8356,0.373454,0.768177,47,-121.5,96.4375,1.42725,-0.128906,0.1875,-2,-2,0,-3,-3,-3,-3,1,8570
-1.80126,0.40907,0.8048,55.6875,-121.875,90.5,1.05957,0.114746,0.176758,0,-1,-1,-3,-7,-2,-4,2,8586
-1.76428,0.443458,0.843716,56.75,-120.813,84.875,0.791992,0.307129,0.230957,2,-3,1,-1,-6,4,1,-1,8604
-1.76428,0.443458,0.843716,56.75,-120.813,84.875,0.791992,0.307129,0.230957,-9,0,-2,1,-2,-9,-5,2,8621
-1.62492,0.523004,0.956159,67.75,-70.375,41.5,0.0625,0.72168,0.57373,16,7,6,5,0,-5,-12,3,8681
-1.58068,0.544387,0.978261,57.875,-33.5,17.4375,-0.166016,0.92041,0.644043,-6,-4,-1,1,-2,-3,-6,-6,8698
-1.55094,0.555992,0.988071,33.5,-1.25,-15.0625,-0.286133,0.891602,0.629395,2,-1,-4,-1,-3,-6,-7,0,8715
-1.55172,0.551637,0.98612,-29.875,22.6875,-50.6875,-0.130859,0.868164,0.512207,11,-2,-5,-5,4,7,12,-2,8731
-1.55172,0.551637,0.98612,-29.875,22.6875,-50.6875,-0.130859,0.868164,0.512207,5,-9,-7,-5,2,-3,-6,-4,8748
-1.57882,0.528641,0.970962,-78.1875,50.4375,-87.625,0.121094,0.841309,0.398438,-3,4,-6,14,12,2,-20,10,8765
-1.69628,0.411433,0.898045,-143.75,126.313,-179.688,0.930176,0.5625,0.0551758,10,10,3,-1,-3,0,2,0,8782
-1.69628,0.411433,0.898045,-143.75,126.313,-179.688,0.930176,0.5625,0.0551758,-2,-4,-6,-1,-7,0,-4,-7,8798
-1.76502,0.31685,0.850428,-148.25,168.938,-247.5,2.95215,-0.0527344,-0.38623,-19,-2,-9,1,-3,-16,-31,-4,8815
-1.83481,0.21026,0.788747,-154,235.875,-259.125,3.0249,-0.96582,-0.124023,3,-15,-17,6,9,9,-4,17,8833
-1.87421,0.118129,0.729571,-85.25,234.938,-206.5,3.54932,-1.20996,-0.499023,0,-10,-3,2,-11,-1,31,-12,8850
-1.86344,0.0336214,0.686385,40.25,188.938,-195.438,2.87354,-1.27539,-0.513184,10,6,13,5,3,-4,5,-5,8868
-1.86344,0.0336214,0.686385,40.25,188.938,-195.438,2.87354,-1.27539,-0.513184,-1,3,11,12,3,-3,0,-2,8886
-1.85132,-0.103583,0.638416,-11.8125,105.063,-164.75,2.15674,-0.0991211,-0.280762,0,2,8,-12,1,1,3,-2,8902
-1.85132,-0.103583,0.638416,-11.8125,105.063,-164.75,2.15674,-0.0991211,-0.280762,-1,2,9,-5,3,3,-2,5,8919
-1.90615,-0.165036,0.626527,-161.625,85.625,-157.938,1.93311,0.124023,-0.29248,-2,-2,5,-7,-12,-1,-3,-10,8936
-2.0488,-0.300521,0.598484,-70.0625,52.6875,-59.9375,0.495605,-0.937988,-0.487793,2,-2,-1,0,0,-4,2,1,8993
-2.06126,-0.313452,0.596716,-22.4375,27.8125,-33,0.175781,-0.568359,-0.557617,-1,0,-4,-5,1,0,15,4,9010
-2.06685,-0.308758,0.599417,10.5,3.5625,-5.375,-0.0673828,-0.477539,-0.666016,-2,-2,-5,-3,-6,-8,2,-6,9027
-2.06685,-0.308758,0.599417,10.5,3.5625,-5.375,-0.0673828,-0.477539,-0.666016,-6,-1,-2,-4,-7,1,-11,4,9044
-2.06581,-0.29141,0.604564,33.5625,-11.5,8.375,-0.268066,-0.635742,-0.791992,2,-1,1,0,-6,-3,10,-13,9061
-2.07116,-0.267338,0.612988,19.25,-23.4375,11.0625,-0.421875,-0.717773,-0.858398,-5,-1,-3,1,0,-5,-10,3,9078
-2.08263,-0.245988,0.622593,2.875,-34,21.75,-0.123535,-0.691406,-0.870605,-3,-3,-7,-6,-2,-1,1,-8,9094
-2.08263,-0.245988,0.622593,2.875,-34,21.75,-0.123535,-0.691406,-0.870605,0,-1,-7,-5,-3,-2,-2,5,9111
-2.08567,-0.230206,0.627392,18.375,-35,47.1875,0.430664,-0.719727,-0.806152,-5,-2,-4,5,2,-4,-12,3,9127
-2.06238,-0.168679,0.618294,34.9375,-41.25,108.375,0.590332,-0.884277,-0.435547,-7,2,-2,1,7,4,-20,7,9144
-2.06238,-0.168679,0.618294,34.9375,-41.25,108.375,0.590332,-0.884277,-0.435547,-5,0,-8,-6,-5,2,0,0,9160
-2.05351,-0.138119,0.616534,21.125,-48.8125,101.563,1.60449,-1.01855,-0.312988,2,-6,-10,-12,-18,-6,21,-13,9177
-2.03421,-0.0764988,0.621983,57.25,-94.125,150.063,2.69434,-0.926758,-0.225586,5,-3,7,4,4,-3,17,-7,9194
-1.99221,0.00439496,0.632611,121.563,-126.625,196.688,2.90918,-1.09033,0.0898438,-8,-2,1,0,-2,1,-17,8,9210
-1.94057,0.0797392,0.643162,146.25,-111.438,187.563,2.74268,-0.920898,0.159668,0,1,-1,-5,8,1,1,-7,9226
-1.94057,0.0797392,0.643162,146.25,-111.438,187.563,2.74268,-0.920898,0.159668,8,0,4,15,9,-1,18,-6,9243
-1.88798,0.264345,0.66418,15.0625,-66.4375,143.438,1.95215,-0.376465,0.163086,-5,-2,-4,-4,-2,-4,-7,-14,9305
-1.88131,0.317611,0.674309,10.8125,-73.5,136.563,1.85156,-0.125977,0.0849609,2,2,1,2,-2,-1,3,6,9322
-1.87052,0.365407,0.69175,13.5,-93.0625,139.063,1.49121,0.0126953,0.0317383,-3,0,-2,0,-3,-4,-7,4,9338
-1.84662,0.413641,0.721067,35.4375,-117.875,125.313,1.01123,0.0874023,0.0732422,-2,-2,-1,-1,0,0,-1,4,9355
-1.80255,0.454899,0.763047,74.8125,-136.813,95.125,0.675781,0.228516,0.108887,1,2,0,-1,5,-5,-2,1,9373
-1.74474,0.488387,0.810928,102.25,-139.875,73.5625,0.482422,0.396484,0.108398,-4,-1,-1,-1,-7,-2,0,-2,9390
-1.74474,0.488387,0.810928,102.25,-139.875,73.5625,0.482422,0.396484,0.108398,0,1,1,2,1,-4,-1,0,9406
-1.68515,0.514497,0.854943,107.313,-118.125,55.9375,0.20166,0.59375,0.276367,0,-1,0,-2,-3,4,2,-4,9423
-1.63027,0.532654,0.887913,103.313,-81.8125,36.4375,-0.0942383,0.774414,0.479004,-1,-2,0,-3,18,6,1,2,9441
-1.57932,0.555642,0.915311,69.125,-45.1875,15.375,-0.276855,0.902832,0.648926,-2,-5,-3,-5,-2,-2,0,3,9458
-1.5458,0.566272,0.932139,26.1875,-14.125,-20.6875,-0.297852,0.946289,0.746094,-3,-1,-3,-1,-3,-4,-5,-4,9475
-1.53245,0.553402,0.933557,-2.4375,18.75,-77,-0.0927734,0.98584,0.640625,12,2,3,-8,-6,-5,32,-11,9492
-1.53245,0.553402,0.933557,-2.4375,18.75,-77,-0.0927734,0.98584,0.640625,-1,-1,7,9,15,5,-23,7,9508
-1.59006,0.457485,0.87975,-77.4375,83.8125,-160.813,0.453125,0.832031,0.268555,-8,3,-4,-3,-2,3,-2,6,9525
-1.59006,0.457485,0.87975,-77.4375,83.8125,-160.813,0.453125,0.832031,0.268555,-6,-4,-9,-11,-20,1,34,-4,9542
-1.67608,0.372524,0.833745,-192.5,134.063,-214.5,1.46045,0.328125,0.0263672,2,-6,-9,-4,-3,5,7,4,9559
-1.91972,-0.0760121,0.613334,-46.125,148.813,-162.063,2.84912,-0.649902,-0.280762,-4,0,1,-3,1,-4,0,-1,9664
-1.94429,-0.133981,0.59586,-75.5625,105.375,-137.875,2.1875,-0.451172,-0.341309,-2,0,0,4,3,2,-8,-4,9681
-2.00119,-0.184628,0.589561,-165.813,73.25,-126.688,1.70215,-0.188477,-0.367188,-1,-1,2,-1,-1,5,-11,-9,9698
-2.07209,-0.233966,0.585567,-203.063,66.0625,-105.938,1.16504,-0.484375,-0.457031,5,-1,1,2,-9,-7,8,7,9715
-2.13331,-0.270218,0.580542,-177.75,60.3125,-74.3125,0.779785,-0.644043,-0.459961,2,-1,1,-1,-5,-7,14,8,9732
-2.13331,-0.270218,0.580542,-177.75,60.3125,-74.3125,0.779785,-0.644043,-0.459961,-6,-2,-4,-7,-3,-2,-5,0,9749
-2.17456,-0.292215,0.567726,-24.625,21.125,-4.5,0.0512695,-0.782715,-0.516602,0,-2,1,3,5,0,-5,-8,9766
-2.17456,-0.292215,0.567726,-24.625,21.125,-4.5,0.0512695,-0.782715,-0.516602,2,-1,-2,-2,1,0,-3,1,9783
-2.16472,-0.274755,0.567309,34.9375,-7.625,16.8125,-0.211914,-0.689453,-0.597168,-2,-2,-7,-1,5,0,-2,12,9800
-2.15188,-0.252861,0.572669,62.5,-24.4375,20.5625,-0.276855,-0.479004,-0.692383,-1,0,-2,-2,-2,-1,1,1,9817
-2.14732,-0.231917,0.583619,54.9375,-33.9375,11.625,-0.265625,-0.433594,-0.885254,3,-2,-2,-5,-2,3,18,-13,9834
-2.14819,-0.210894,0.591626,41.5,-32.6875,25.4375,-0.074707,-0.609863,-1.07373,-1,-2,-4,1,0,-5,-19,-6,9851
-2.14819,-0.210894,0.591626,41.5,-32.6875,25.4375,-0.074707,-0.609863,-1.07373,8,-2,0,-2,-2,0,6,-15,9869
-2.13167,-0.153878,0.578345,49.4375,-31.5625,97.375,0.153809,-0.689453,-0.742676,5,0,0,-3,-1,1,11,-6,9886
-2.13167,-0.153878,0.578345,49.4375,-31.5625,97.375,0.153809,-0.689453,-0.742676,5,-3,1,13,0,-4,9,0,9903
-2.12185,-0.111568,0.576448,29.625,-61.3125,109.438,0.356445,-0.781738,-0.628418,-8,-3,-2,-4,-3,-4,-16,-2,9921
-1.8738,0.223979,0.668446,171.375,-165.75,215.25,2.55225,-0.990234,0.17041,7,1,3,1,13,2,29,-7,10004
-1.8738,0.223979,0.668446,171.375,-165.75,215.25,2.55225,-0.990234,0.17041,-5,-1,1,3,-6,-7,1,-1,10021
-1.84719,0.300402,0.690709,59.875,-121.563,192.063,2.01221,-0.525879,0.314941,5,9,-1,4,6,1,7,-4,10038
-1.82136,0.365065,0.710957,54.8125,-101.625,164.688,1.85254,-0.42627,0.176758,-4,-3,-4,1,15,-1,-2,-4,10055
-1.80031,0.422612,0.731304,37.8125,-91.3125,147.563,1.7832,-0.104492,0.0405273,-4,-2,-1,-1,-12,-3,-6,-1,10072
-1.77893,0.468964,0.753289,33.3125,-88.375,138.375,1.48145,0.0888672,0.0776367,-2,1,-2,-1,-1,5,1,6,10089
-1.77893,0.468964,0.753289,33.3125,-88.375,138.375,1.48145,0.0888672,0.0776367,2,-1,2,-3,1,1,-5,3,10105
-1.75336,0.516143,0.781636,33.8125,-98.875,133.125,1.06396,0.14502,0.0883789,-2,1,1,-3,0,2,-7,3,10122
-1.71662,0.562501,0.819118,48.25,-112.813,123.25,0.634277,0.177246,0.134277,2,1,2,1,1,-3,-1,1,10138
-1.66904,0.59951,0.859099,71.625,-107.438,96.25,0.375,0.301758,0.140137,-2,-3,-4,-3,-10,-4,-3,0,10156
-1.61605,0.632041,0.901566,72.3125,-97.9375,69.625,0.0810547,0.50293,0.195313,3,3,0,-1,3,-4,0,-6,10173
-1.56461,0.658027,0.941542,59.8125,-78.0625,38.4375,-0.0805664,0.72168,0.352539,2,-1,2,2,-2,-5,2,-4,10190
-1.52084,0.678372,0.972993,39.0625,-46.4375,6.0625,-0.254883,0.945313,0.541504,-6,-3,1,-4,-1,4,-2,0,10207
-1.52084,0.678372,0.972993,39.0625,-46.4375,6.0625,-0.254883,0.945313,0.541504,-1,-2,-1,4,1,-1,-7,2,10223
-1.49448,0.690129,0.988473,11.1875,-7.8125,-34.5,-0.348633,1.2207,0.595215,-3,8,-3,-5,-1,2,-4,4,10240
-1.49612,0.679181,0.98761,-32.125,19.4375,-90.375,-0.168945,1.17139,0.478516,1,-7,-2,-3,3,1,-5,-2,10257
-1.76226,0.368047,0.804604,-247.375,206.438,-251.125,2.66992,-0.828613,-0.0883789,15,-3,3,16,-12,-17,35,-16,10327
-1.76226,0.368047,0.804604,-247.375,206.438,-251.125,2.66992,-0.828613,-0.0883789,-8,-7,-2,1,-15,-5,0,-4,10342
-1.85654,0.267172,0.750834,-221.75,210.938,-246.688,2.91455,-0.941895,0.12207,2,-3,-4,-1,-6,-6,0,-27,10359
-1.91589,0.167307,0.706128,-142.438,207.938,-233.375,3.66064,-0.657227,-0.059082,-5,1,-6,4,-3,-4,12,4,10376
-1.91589,0.167307,0.706128,-142.438,207.938,-233.375,3.66064,-0.657227,-0.059082,3,-1,-4,9,10,-3,6,-19,10392
-1.96635,0.0812052,0.657982,-127.75,216.875,-180.563,3.37402,-0.616699,-0.374512,-2,3,0,5,4,0,-1,5,10409
-2.03379,-0.0495355,0.603996,-95.5,123.188,-126.938,2.10986,-0.543457,-0.346191,1,-1,5,-8,-15,5,36,17,10426
-2.03379,-0.0495355,0.603996,-95.5,123.188,-126.938,2.10986,-0.543457,-0.346191,-15,3,3,-13,-7,-6,-23,-7,10443
-2.0685,-0.0973602,0.597461,-100.875,80,-113.188,1.5752,-0.306152,-0.441406,3,2,6,-6,-2,1,-5,-13,10461
-2.1167,-0.143159,0.593157,-137.25,65.9375,-89.8125,1.31104,-0.603027,-0.518066,-1,-3,2,1,-6,-2,4,-3,10478
-2.16318,-0.173526,0.584811,-136.875,60.4375,-50.4375,0.845215,-0.678223,-0.458496,-4,0,1,0,-8,-12,-10,3,10495
-2.18819,-0.196744,0.575722,-77,43.9375,-18.875,0.539551,-0.658203,-0.462402,0,-2,0,-2,1,-1,3,-8,10511
-2.18819,-0.196744,0.575722,-77,43.9375,-18.875,0.539551,-0.658203,-0.462402,-3,-3,3,1,7,16,-5,-1,10529
-2.19306,-0.189409,0.571194,9.4375,-8.5625,10.8125,-0.105469,-0.510254,-0.489746,2,0,1,1,-13,-17,-1,-24,10546
-2.19306,-0.189409,0.571194,9.4375,-8.5625,10.8125,-0.105469,-0.510254,-0.489746,19,1,4,-5,4,-7,29,8,10562
-2.19306,-0.189409,0.571194,9.4375,-8.5625,10.8125,-0.105469,-0.510254,-0.489746,19,1,4,-5,4,-7,29,8,10579
-2.10518,-0.0739224,0.56636,101.438,-29.125,49.6875,0.277344,-0.566895,-1.08984,2,4,5,7,8,2,25,-8,10678
-2.07248,-0.0487627,0.568212,53.1875,-63.625,94.875,1.46094,-0.905273,-0.574707,0,-3,3,-17,-31,1,42,-5,10696
-2.07248,-0.0487627,0.568212,53.1875,-63.625,94.875,1.46094,-0.905273,-0.574707,-2,-4,-14,-13,-23,11,-14,14,10712
-2.04902,0.0176478,0.581917,67.6875,-124.25,149.5,2.85742,-0.940918,-0.364746,-7,-5,-8,-2,-7,5,-4,2,10729
-2.01292,0.111217,0.609672,98.625,-190.188,205.125,3.05176,-1.22656,0.271973,-5,0,-8,9,34,6,-3,-7,10747
-1.9479,0.213719,0.648967,168,-219.313,225.313,2.91943,-1.08203,0.418457,7,4,9,-4,0,-6,19,-1,10764
-1.8871,0.297361,0.682656,150,-169.438,193.813,1.93945,-0.82666,-0.012207,4,-1,0,-5,5,4,21,1,10782
-1.85809,0.371619,0.705676,61.25,-122.813,184.625,2.35449,-0.40332,0.384766,0,6,1,8,7,6,0,8,10799
-1.83844,0.435972,0.729395,29.375,-111,160.375,2.10791,-0.178711,0.169434,-2,0,1,-4,27,5,-3,-2,10816
-1.82029,0.496626,0.755578,18.1875,-109.188,150.875,1.74951,0.0458984,0.186523,4,-2,1,-2,-16,7,-2,3,10833
-1.79414,0.547131,0.7866,27.6875,-111.125,138.938,1.20654,0.0981445,0.208008,-3,0,0,-6,-13,9,-1,7,10850
-1.79414,0.547131,0.7866,27.6875,-111.125,138.938,1.20654,0.0981445,0.208008,0,1,1,0,-8,-4,9,-5,10867
-1.75986,0.592568,0.819915,44.1875,-105.563,118.875,0.734863,0.206543,0.213867,-3,-1,1,0,-4,-4,0,-4,10884
-1.71746,0.62339,0.855061,53.375,-90.875,87.875,0.522949,0.346191,0.241211,1,-2,-3,-1,-2,-1,6,-8,10901
-1.67837,0.649298,0.886722,47.3125,-74.125,62.9375,0.344238,0.489746,0.244629,-1,-1,-3,-3,-7,9,-3,12,10918
-1.64586,0.672698,0.916135,28.375,-60.4375,41.0625,0.125,0.614746,0.293457,0,2,-1,-3,-8,0,-4,3,10934
-1.58324,0.677355,0.938785,26.8125,67.6875,-102.25,-0.137695,1.125,0.468262,-24,-11,-7,-7,6,-13,-73,5,11031
-1.67547,0.551876,0.842627,-112.125,138.563,-187.563,0.621094,0.386719,0.0874023,-10,-7,-6,3,-3,-14,19,-5,11049
-1.67547,0.551876,0.842627,-112.125,138.563,-187.563,0.621094,0.386719,0.0874023,0,-6,-4,4,1,-7,27,-8,11066
-1.76636,0.459184,0.783674,-178.938,185.875,-240.5,1.95215,0.0219727,0.00634766,-7,-6,-10,2,-1,-12,-15,-1,11083
-1.83584,0.339551,0.733659,-143.25,207.313,-304.188,2.99463,-0.348145,0.0141602,-4,-2,-2,11,2,-10,11,-8,11100
-1.89014,0.232451,0.691265,-121.438,200.063,-260.563,3.66064,-0.373535,0.143066,-5,4,2,-4,-14,2,8,-6,11117
-1.92484,0.133485,0.65302,-79.25,195.875,-232.25,3.46826,-0.680176,0.0332031,-6,1,0,9,18,0,-16,-2,11134
-1.92484,0.133485,0.65302,-79.25,195.875,-232.25,3.46826,-0.680176,0.0332031,1,4,0,7,21,7,-5,3,11150
-1.99039,-0.0284753,0.603882,-96.8125,137.75,-174.25,2.71631,-0.466797,-0.239746,-1,3,5,-2,-11,-9,9,-6,11167
-1.99039,-0.0284753,0.603882,-96.8125,137.75,-174.25,2.71631,-0.466797,-0.239746,-1,3,5,-2,-11,-9,9,-6,11184
-2.03937,-0.0944299,0.592098,-142.438,111.938,-156.125,2.38281,-0.304199,-0.430664,-2,1,2,3,5,4,3,2,11201
-2.11,-0.140769,0.591595,-202.625,65.3125,-115.625,1.59277,-0.297363,-0.424805,1,1,2,4,6,-2,-3,-7,11219
-2.17665,-0.172901,0.592935,-189.438,37.6875,-65.8125,1.09863,-0.64209,-0.510254,2,-1,0,0,-1,2,-6,2,11235
-2.21653,-0.196621,0.589687,-117.5,42.5,-43.4375,0.67334,-0.901855,-0.572266,3,-2,-1,-1,-7,0,3,4,11253
-2.21653,-0.196621,0.589687,-117.5,42.5,-43.4375,0.67334,-0.901855,-0.572266,2,-4,2,4,4,6,4,8,11270
-2.2338,-0.213472,0.586784,-53.75,30.25,-26.9375,0.333496,-0.776367,-0.557617,-4,-2,-5,4,10,-11,-27,1,11287
-2.24522,-0.160723,0.602858,7.125,-35.5625,26.25,-0.306152,-0.645996,-0.762695,0,2,2,5,1,-6,-20,-24,11359
-2.23157,-0.139076,0.60034,47.875,-26.25,47.375,0.0493164,-0.866211,-0.850586,3,-1,-4,-10,-8,3,22,6,11376
-2.2081,-0.118687,0.594316,82.25,-26,65.5,0.274414,-0.796875,-0.899414,-1,-5,-5,-2,3,2,9,-3,11395
-2.1721,-0.0819063,0.588942,104.125,-49.625,96.6875,0.221191,-0.770508,-0.711426,3,-1,3,2,-2,3,16,-7,11412
-2.1721,-0.0819063,0.588942,104.125,-49.625,96.6875,0.221191,-0.770508,-0.711426,3,-1,3,2,-2,3,16,-7,11428
-2.10833,0.00714959,0.582343,91.25,-66.3125,114.438,1.94922,-0.641113,-0.400879,4,0,4,6,-6,-5,17,-3,11445
-2.10833,0.00714959,0.582343,91.25,-66.3125,114.438,1.94922,-0.641113,-0.400879,-5,-3,-9,-10,-2,-2,-6,8,11462
-2.08099,0.0772548,0.58002,78.5625,-94.8125,177.063,2.62158,-0.69873,-0.197754,-6,-3,-6,9,7,-1,-10,2,11479
-2.08099,0.0772548,0.58002,78.5625,-94.8125,177.063,2.62158,-0.69873,-0.197754,-6,-3,-6,9,7,-1,-10,2,11496
-2.08099,0.0772548,0.58002,78.5625,-94.8125,177.063,2.62158,-0.69873,-0.197754,4,-3,0,-2,3,5,24,-6,11513
-1.98163,0.263613,0.622137,162.688,-182.563,215.563,2.92627,-0.84668,0.378906,-1,0,-4,-6,1,2,-8,0,11530
-1.93645,0.351871,0.645634,109.063,-155.375,209.5,2.29932,-0.54541,0.199707,-6,0,1,7,9,-4,-11,-12,11547
-1.91379,0.426076,0.664375,44.9375,-120.25,182.375,1.82129,-0.467285,0.293945,-4,-9,-6,-5,-3,-5,-11,5,11565
-1.8846,0.494596,0.686452,55.1875,-117.438,167.563,1.75391,-0.463867,0.12793,4,-1,-3,0,-1,3,11,4,11582
-1.85946,0.545813,0.708594,40.5,-102.125,144.188,1.41113,-0.0712891,-0.027832,1,-3,-3,2,0,9,-3,12,11599
-1.83599,0.590691,0.736012,23.3125,-103.188,122.563,1.30762,0.0771484,0.0986328,-4,0,-2,-5,1,-5,-6,0,11616
-1.74324,0.689822,0.851806,31.25,-97.9375,61.4375,0.26416,0.234863,0.228516,0,7,2,1,-1,-10,-4,-2,11679
-1.69666,0.717275,0.891161,46.6875,-82.0625,44.625,0.0117188,0.460449,0.333008,5,-4,-1,0,3,2,14,16,11696
-1.65863,0.743659,0.92102,36.4375,-52.4375,24.4375,-0.13916,0.802734,0.391113,-2,-2,-3,0,-1,-3,-17,1,11713
-1.63619,0.767617,0.941553,6.75,-26.4375,-1.3125,-0.331543,1.06299,0.431641,2,-1,-1,-1,2,6,9,-3,11731
-1.63619,0.767617,0.941553,6.75,-26.4375,-1.3125,-0.331543,1.06299,0.431641,1,2,4,-7,-7,0,2,-4,11748
-1.62141,0.778415,0.958402,-13.4375,-12.0625,-32.3125,-0.250977,1.03662,0.501953,-5,-18,-2,-5,-2,-1,-2,-7,11765
-1.62489,0.761377,0.955949,-27.5625,31.5,-79.375,0.192383,0.858398,0.515137,7,-3,-5,11,6,-2,-10,6,11783
-1.65164,0.718165,0.928578,-28.375,70.625,-123.125,0.350586,0.709961,0.427734,-15,-1,6,-4,-10,0,-10,0,11801
-1.69802,0.656998,0.887081,-59.9375,111,-159.563,0.783203,0.529297,0.26123,-12,-4,-13,9,7,-3,-15,-4,11818
-1.77618,0.568402,0.83492,-138.188,162.563,-230.125,2.64502,0.17041,-0.000976563,7,2,-9,-9,-13,-15,-2,-4,11835
-1.86183,0.46645,0.778667,-165.563,208,-249.25,2.71143,-0.625488,0.0258789,-10,6,-11,14,13,-7,-27,7,11851
-1.86183,0.46645,0.778667,-165.563,208,-249.25,2.71143,-0.625488,0.0258789,2,-3,0,1,-6,-1,18,-1,11869
-1.92984,0.361952,0.73664,-145.938,200.375,-248.688,3.44434,-0.801758,-0.0776367,8,-1,0,-2,6,7,26,-15,11886
-1.98532,0.261287,0.700251,-127.125,200.938,-229.938,3.31934,-0.742676,-0.259277,-7,7,7,5,7,-6,-17,-17,11903
-2.02703,0.171008,0.671823,-102,181.563,-200.938,2.98193,-0.82666,-0.209473,1,0,5,-3,12,7,4,-7,11919
-2.06146,0.0920438,0.648242,-89.8125,162.563,-171,2.48633,-0.355957,-0.208496,2,0,5,-2,-3,-7,9,-9,11936
-2.32211,-0.126078,0.607859,-70,26.25,-14.6875,0.254395,-0.705566,-0.59082,-5,1,-1,-2,-2,6,-1,0,12032
-2.32211,-0.126078,0.607859,-70,26.25,-14.6875,0.254395,-0.705566,-0.59082,-5,1,-1,-2,-2,6,-1,0,12049
-2.32564,-0.123646,0.608773,-5.8125,-2.1875,-0.875,0.0234375,-0.600098,-0.638672,-1,-1,0,-4,2,5,19,2,12065
-2.32514,-0.109622,0.61394,14.125,-23.875,6.125,-0.186035,-0.521973,-0.710938,-3,-1,-5,-5,-1,-7,1,-6,12082
-2.32354,-0.0869747,0.618271,17.875,-33.0625,18.8125,-0.325684,-0.557617,-0.760742,-3,1,-2,-3,-6,-1,-10,-21,12100
-2.31462,-0.0635017,0.61668,39.125,-24.75,34.875,-0.285156,-0.658203,-0.869629,-5,-3,-3,2,12,5,-20,-4,12117
-2.29895,-0.0464522,0.609286,63.5,-14.9375,49.25,0.0239258,-0.664063,-0.969727,-3,-3,-6,1,2,1,6,-4,12134
-2.27947,-0.0257622,0.603123,81.625,-37.4375,70.9375,0.289063,-0.510742,-0.936035,-12,0,-5,2,3,-2,-30,11,12152
-2.27947,-0.0257622,0.603123,81.625,-37.4375,70.9375,0.289063,-0.510742,-0.936035,9,1,11,-2,-14,-5,34,-14,12167
-2.24722,0.0101301,0.593719,96.3125,-48.3125,100.375,0.307617,-0.520996,-0.705078,-6,0,-2,-7,-3,-1,-23,14,12184
-2.22111,0.0460997,0.582163,75.625,-46.4375,113.438,0.819824,-0.791016,-0.594727,4,-6,-13,-2,3,-5,1,-3,12201
-2.19335,0.0879064,0.578093,80.125,-61.875,103.438,2.25635,-0.904785,-0.437012,7,-3,-4,-3,-19,-6,38,9,12218
-2.15056,0.164112,0.575716,123.438,-118.125,184,2.78076,-0.787109,-0.272461,0,-2,-3,1,1,-7,-23,-11,12235
-2.0869,0.254521,0.593543,171.875,-177.688,195,3.22168,-0.906738,-0.0683594,2,-1,-8,1,14,5,11,8,12253
-2.0869,0.254521,0.593543,171.875,-177.688,195,3.22168,-0.906738,-0.0683594,4,5,-2,0,6,11,16,5,12269
-2.00369,0.352258,0.618854,216.75,-190.125,217.875,2.64453,-0.806152,0.260254,-17,2,-6,-7,1,1,-43,2,12286
-1.81888,0.609289,0.717314,64,-94.5,129.563,1.69092,-0.0961914,0.149902,-3,-2,-1,-2,-3,1,-7,3,12377
-1.71832,0.704289,0.781451,94.25,-96.0625,128.375,0.82666,0.189453,0.344238,-3,-1,0,-2,-2,-6,-4,-2,12394
-1.71832,0.704289,0.781451,94.25,-96.0625,128.375,0.82666,0.189453,0.344238,-1,-2,0,-1,2,-4,-4,-2,12412
-1.59916,0.777882,0.851412,85.5,-67.875,91.125,0.35791,0.461426,0.320801,4,-6,-2,-3,-11,-8,7,-3,12429
-1.59916,0.777882,0.851412,85.5,-67.875,91.125,0.35791,0.461426,0.320801,2,1,2,-2,-3,-6,0,-4,12446
-1.54523,0.815383,0.888698,60.3125,-57.125,80.4375,0.0400391,0.583008,0.356445,-3,8,1,0,6,2,-16,-1,12464
-1.49156,0.852001,0.926759,49.4375,-44.25,57.375,-0.260254,0.76416,0.473633,2,2,-2,-2,-3,1,-7,-6,12480
-1.44906,0.881771,0.952226,40.75,-16.75,13.0625,-0.379395,1.15186,0.444824,6,-1,4,8,24,7,-1,-5,12497
-1.44906,0.881771,0.952226,40.75,-16.75,13.0625,-0.379395,1.15186,0.444824,6,-1,4,8,24,7,-1,-5,12514
-1.48083,0.896503,0.935294,-80.1875,37.375,-85.9375,-0.0849609,1.27148,0.22168,-16,-1,-7,1,22,4,-37,10,12532
-1.55386,0.849603,0.892096,-117.125,75,-145.125,0.453125,0.929199,0.198242,2,-3,-12,-2,4,16,-10,2,12547
-1.55386,0.849603,0.892096,-117.125,75,-145.125,0.453125,0.929199,0.198242,-6,5,-12,18,18,2,-34,6,12564
-1.65151,0.780588,0.833756,-157.813,120.375,-186.25,1.00684,0.336426,0.0356445,-2,-8,-10,-16,-13,3,1,2,12580
-1.75971,0.68912,0.772797,-193.25,163.938,-242.063,2.59033,-0.269531,-0.0917969,-7,-10,-6,-3,-15,-15,9,-15,12598
-1.85088,0.586178,0.716851,-165.938,193.875,-257.438,3.12598,-0.739746,-0.0673828,-9,-2,-10,-4,-12,0,-2,-4,12615
-1.92121,0.486333,0.672604,-136.563,192.625,-238.375,3.60938,-0.90625,-0.00927734,0,4,-2,16,6,4,-11,3,12632
-1.99883,0.313385,0.618972,-80.6875,146.875,-193.25,2.72021,-0.662598,-0.182617,-1,0,3,-3,4,2,2,-8,12680
-2.04301,0.237594,0.604407,-115.625,130.813,-178,2.30469,-0.361816,-0.243652,4,0,3,-3,-1,-9,-9,0,12697
-2.104,0.168276,0.596871,-170.125,114.125,-163.875,1.979,-0.39209,-0.416016,-5,1,1,1,-9,-17,-10,-10,12714
-2.17521,0.115284,0.591649,-202.063,94.3125,-120.063,1.45166,-0.694824,-0.524414,1,0,3,-1,-17,-4,17,-1,12731
-2.17521,0.115284,0.591649,-202.063,94.3125,-120.063,1.45166,-0.694824,-0.524414,-1,-2,-1,1,2,6,-1,-3,12748
-2.22584,0.071984,0.586659,-146.625,74.3125,-77.25,0.968262,-0.919434,-0.491211,-1,-1,-1,1,2,9,-2,-8,12766
-2.24626,0.0328537,0.582926,-64.5,55.75,-53.25,0.479004,-0.810059,-0.529785,4,-2,-1,-5,-1,1,4,-3,12783
-2.24974,0.0156319,0.584088,-6.1875,20.3125,-31.1875,0.163574,-0.574707,-0.539063,-1,1,-1,-1,3,-5,11,13,12800
-2.25108,0.0179798,0.588005,8.6875,-8.625,-7.3125,-0.111816,-0.425781,-0.57373,-7,-1,0,-3,0,0,-7,-1,12817
-2.25475,0.0304561,0.593274,4.3125,-20.75,1.125,-0.335938,-0.494141,-0.683105,4,-1,1,3,-2,-1,15,8,12835
-2.26172,0.0436521,0.597693,-2.875,-19.3125,2.1875,-0.383301,-0.601074,-0.822266,0,-2,-5,-2,-1,5,10,2,12852
-2.26172,0.0436521,0.597693,-2.875,-19.3125,2.1875,-0.383301,-0.601074,-0.822266,3,-3,1,4,0,-8,-9,-4,12870
-2.26523,0.0525899,0.596858,12.75,-10.625,14.9375,-0.162109,-0.663086,-0.96875,-1,-1,-3,-5,2,5,-6,2,12887
-2.2601,0.0579503,0.590296,45.0625,-8.125,36.1875,0.183594,-0.596191,-1.03467,-4,-2,-7,1,3,-4,-21,-9,12904
-2.24157,0.0754457,0.586738,77.875,-37.0625,59.625,0.205566,-0.555176,-0.874512,2,-3,3,-2,-5,6,13,-10,12921
-2.21518,0.102173,0.582996,79.75,-57.125,90.875,0.321289,-0.810059,-0.67041,-3,1,0,-6,2,1,-2,3,12939
-1.93248,0.424483,0.652642,202.375,-177.625,219.688,2.69043,-0.887695,0.132324,1,0,1,-1,-2,-4,5,-7,13027
-1.93248,0.424483,0.652642,202.375,-177.625,219.688,2.69043,-0.887695,0.132324,1,1,-2,-3,-9,-4,-9,1,13044
-1.89182,0.506812,0.676329,85.875,-136.625,202.188,2.22607,-0.18457,0.339844,-2,6,-2,1,-7,3,-3,3,13061
-1.86453,0.575825,0.699259,44.375,-113.563,171.25,2.19141,-0.33252,0.13916,0,-2,-3,2,-4,-1,-6,0,13078
-1.83517,0.644381,0.724633,42.5625,-111.438,172.438,2.04443,-0.196777,0.164551,-1,-4,-2,-8,-8,-3,-4,-2,13095
-1.7867,0.711148,0.75969,75.5,-121.438,167,1.56934,0.0317383,0.13623,2,-3,0,-1,6,2,2,-6,13113
-1.7867,0.711148,0.75969,75.5,-121.438,167,1.56934,0.0317383,0.13623,3,1,4,1,3,-2,9,0,13129
-1.7228,0.767201,0.808214,88.1875,-130.813,149.313,1.01563,0.182129,0.145508,2,-1,0,1,-2,5,2,-6,13146
-1.65019,0.814273,0.863244,93.5,-123.688,125.563,0.742188,0.347656,0.231934,-1,1,-3,-2,-4,-10,-8,-2,13163
-1.57815,0.853453,0.913352,94.8125,-96.4375,106.875,0.543945,0.568359,0.394043,0,-2,-1,-2,6,5,-12,-3,13180
-1.4945,0.893812,0.967524,94.0625,-64.8125,84.75,0.121582,0.744629,0.575684,2,1,0,-2,0,-1,-7,4,13197
-1.42289,0.92781,1.00913,79.375,-27.6875,42.5625,-0.303711,0.918945,0.644043,-10,0,0,-5,-8,2,-3,3,13214
-1.39224,0.950128,1.02412,22.5625,13.8125,-15.3125,-0.500488,1.13574,0.563477,6,-1,0,-2,1,4,9,-6,13232
-1.39224,0.950128,1.02412,22.5625,13.8125,-15.3125,-0.500488,1.13574,0.563477,7,-2,-1,3,-6,-7,-4,-6,13249
-1.40605,0.958142,1.01283,-38.8125,45.3125,-60.375,-0.299316,1.22803,0.45459,3,3,7,2,-3,4,15,-5,13266
-1.47023,0.928872,0.969303,-86.625,65.4375,-107.75,0.0620117,1.10986,0.282715,-6,-8,3,-13,-10,1,27,-3,13282
-1.73306,0.734853,0.807266,-173.563,148.75,-218.875,1.67188,0.0864258,-0.188477,10,0,-20,-2,1,-4,-3,-8,13349
-1.8438,0.62869,0.747378,-209.688,196.063,-268.438,3.01367,-0.540039,-0.141602,-27,-4,-21,-4,-3,-21,-73,14,13366
-1.9238,0.521193,0.699257,-154.125,204.813,-257.75,3.35742,-0.797363,-0.0986328,7,-2,-4,-1,-19,-3,17,-6,13383
-1.97463,0.426087,0.657864,-91.6875,198.938,-214.25,3.36426,-0.98291,-0.059082,-2,-1,5,9,11,3,2,-2,13400
-1.99774,0.338685,0.628749,-34.9375,172.125,-198.188,2.89941,-0.888672,-0.188965,1,0,9,5,8,-4,-3,-1,13417
-1.99774,0.338685,0.628749,-34.9375,172.125,-198.188,2.89941,-0.888672,-0.188965,1,0,9,5,8,-4,-3,-1,13434
-2.01978,0.262253,0.608433,-45.9375,143.188,-174.688,2.51807,-0.462402,-0.196289,1,2,5,-1,-1,2,-4,11,13451
-2.06068,0.192217,0.59799,-110.063,117,-165.75,2.30957,-0.231445,-0.272949,10,0,5,-4,-8,3,9,-8,13468
-2.13218,0.132847,0.595193,-203.813,92.375,-143.5,1.84033,-0.283203,-0.418457,36,-2,0,0,8,4,-1,-1,13484
-2.20057,0.0870242,0.595721,-197.188,58.625,-89.625,1.32178,-0.742188,-0.479004,-49,-1,-1,0,-6,-7,4,3,13502
-2.24447,0.0590994,0.59385,-129.313,44,-48.375,0.807617,-0.935547,-0.474609,-31,-1,-2,-3,2,-2,-5,2,13519
-2.25738,0.0365213,0.590789,-46.625,29.3125,-21.6875,0.383789,-0.813965,-0.476563,-26,-2,-3,-2,3,-9,-9,1,13536
-2.25738,0.0365213,0.590789,-46.625,29.3125,-21.6875,0.383789,-0.813965,-0.476563,-7,-2,-4,-3,-6,-4,-2,1,13552
-2.25413,0.0325045,0.591246,10.4375,-1.125,-0.625,0.146484,-0.554688,-0.475586,-9,0,-2,-1,-5,-9,-15,-8,13570
-2.24522,0.0430273,0.593402,36.25,-24.375,19.75,-0.0249023,-0.454102,-0.565918,2,-1,-1,-1,0,4,-2,-3,13587
-2.23516,0.0584821,0.597468,41.375,-31.0625,19.125,-0.191895,-0.516602,-0.642578,5,-1,-1,2,-2,1,0,1,13603
-2.22031,0.0958801,0.599486,42.0625,-24.8125,37.8125,-0.18457,-0.602539,-0.873047,5,-3,-4,-10,-6,2,18,-2,13664
-2.20771,0.135395,0.581027,49.1875,-40.25,99.875,0.349609,-0.526367,-0.759277,-13,-1,-7,-8,-11,3,-7,1,13682
-2.19077,0.180262,0.56967,54,-54.8125,129.875,0.324219,-0.738281,-0.564941,9,-1,3,-5,-10,-2,8,-7,13700
-2.17155,0.217132,0.560901,57.25,-53.3125,120.063,1.1626,-0.939941,-0.453125,18,-1,-7,5,16,1,2,-7,13717
-2.13728,0.269115,0.561662,97.75,-84.0625,123.188,2.67871,-0.854492,-0.353516,-17,-7,-2,-4,-13,-10,-14,3,13735
-2.13728,0.269115,0.561662,97.75,-84.0625,123.188,2.67871,-0.854492,-0.353516,6,-2,0,0,9,6,18,1,13752
-2.08078,0.34929,0.5662,157.75,-128.563,190.875,2.76318,-0.791992,-0.12793,-2,-1,-1,-3,5,-5,-4,-3,13770
-2.00345,0.4417,0.592088,193.125,-181.625,205,3.06543,-1.03711,0.195313,4,3,7,12,4,-8,10,-6,13786
-1.9219,0.532903,0.624666,190,-176,210.063,2.64209,-0.976074,0.14502,0,1,0,5,4,-1,2,-1,13804
-1.86779,0.616036,0.659544,100.563,-155.688,199.125,2.21826,-0.445313,0.321289,-2,1,3,0,2,10,-5,1,13822
-1.82081,0.683575,0.693873,75.4375,-127.5,165.188,1.93018,-0.241699,0.242676,-1,-3,-3,-2,0,-2,-9,-2,13837
-1.78388,0.743821,0.729004,40,-113.813,150.625,1.77148,-0.0786133,0.135254,0,0,0,-3,-4,-5,3,-3,13855
-1.78388,0.743821,0.729004,40,-113.813,150.625,1.77148,-0.0786133,0.135254,2,-1,-1,-1,-8,-16,-1,1,13872
-1.74783,0.795027,0.767454,24.3125,-107.188,143.875,1.42627,0.121582,0.17627,2,0,1,1,-2,-1,1,-2,13889
-1.7042,0.845609,0.815522,21.8125,-113.875,137.75,0.999512,0.158203,0.212891,-3,-1,1,-4,-2,5,-6,5,13905
-1.64615,0.890988,0.872953,38.4375,-116.875,122.563,0.621582,0.145508,0.233398,-4,-5,-3,0,-1,-3,0,1,13922
-1.35541,1.01233,1.10362,36,-31.8125,4.4375,-0.371582,0.996582,0.455078,-1,-8,-4,-5,-5,0,0,-2,13998
-1.32589,1.02174,1.12883,-2.5625,-6.25,-41.4375,-0.38916,1.07715,0.478027,-4,-1,-3,4,9,4,-10,4,14015
-1.32589,1.02174,1.12883,-2.5625,-6.25,-41.4375,-0.38916,1.07715,0.478027,-1,-1,2,-4,-9,-4,5,-4,14031
-1.33599,1.01083,1.12257,-36.125,23.5,-91.875,-0.149414,0.932617,0.397949,4,-3,2,-5,-10,-4,20,-12,14048
-1.40155,0.969876,1.07197,-70.0625,58,-139.313,0.223145,0.769043,0.245117,14,4,2,-4,5,4,17,-2,14065
-1.47772,0.912276,1.01465,-89.1875,78.0625,-178.563,0.621094,0.647461,0.23584,-19,-15,-11,6,10,-1,-19,0,14082
-1.55919,0.834144,0.944726,-79.1875,117.313,-230.625,1.61914,0.427246,-0.0786133,-7,5,-6,6,6,7,-27,9,14100
-1.65545,0.747192,0.872859,-129.438,153.938,-243.688,2.78662,-0.271484,-0.179199,-3,2,-9,-6,-3,-14,9,-11,14117
-1.75333,0.658345,0.809575,-163.125,171.125,-233.938,2.81982,-0.975586,-0.0439453,7,7,3,15,3,-5,-12,-9,14134
-1.75333,0.658345,0.809575,-163.125,171.125,-233.938,2.81982,-0.975586,-0.0439453,-3,-4,-4,-7,-9,0,21,-4,14151
-1.83633,0.571952,0.758484,-153.375,171.625,-215.188,3.49219,-1.08154,-0.180664,7,-2,0,-5,-11,-4,18,1,14169
-1.90312,0.495474,0.719066,-133.438,157.625,-180.75,3.19971,-0.808105,-0.138184,1,1,5,4,-6,2,-8,1,14187
-1.95653,0.433306,0.68879,-114.375,135.25,-139.938,2.66846,-0.866699,-0.137207,10,2,5,4,6,4,0,-1,14204
-1.95653,0.433306,0.68879,-114.375,135.25,-139.938,2.66846,-0.866699,-0.137207,-2,0,2,-5,6,-4,1,-1,14220
-2.06047,0.335527,0.652151,-140.625,94.5625,-93.0625,1.88525,-0.352539,-0.187012,-3,-2,1,-6,-3,-1,-6,-1,14237
-2.06047,0.335527,0.652151,-140.625,94.5625,-93.0625,1.88525,-0.352539,-0.187012,-3,-2,1,-6,-3,-1,-6,-1,14254
-2.23248,0.237709,0.608772,-56.375,26.0625,4.6875,0.151367,-0.515625,-0.483887,-2,-1,0,1,0,6,-2,-2,14327
-2.24346,0.239951,0.603058,-19.9375,7.5,13,-0.189453,-0.512207,-0.552246,2,-1,-1,1,-1,-5,-2,9,14344
-2.24673,0.245426,0.599231,10.375,3.125,6.25,-0.382813,-0.444336,-0.683105,-1,-3,0,-3,-12,0,0,7,14361
-2.2457,0.247114,0.596838,33.875,4.1875,-6.75,-0.416992,-0.436523,-0.900879,-1,-3,-3,-2,1,-5,-3,-15,14379
-2.24081,0.242636,0.594044,53.5,1.5625,-4.375,-0.162598,-0.579102,-1.15479,5,-1,-2,-4,-8,-3,6,19,14396
-2.24081,0.242636,0.594044,53.5,1.5625,-4.375,-0.162598,-0.579102,-1.15479,-1,0,-1,-5,-6,-3,1,-4,14413
-2.23249,0.229464,0.591863,66.375,-7.375,3,0.339844,-0.67334,-1.27734,-5,0,2,14,1,-9,-17,7,14430
-2.21512,0.227572,0.587813,81.375,-18.125,31.375,0.304199,-0.77002,-1.10449,1,-4,3,-6,-3,-1,13,-9,14448
-2.19431,0.245562,0.573622,63.125,-18.875,94.5,0.192871,-1.11475,-0.693848,6,-1,3,8,2,4,16,-11,14465
-2.1779,0.243273,0.564212,43,-27.8125,89.3125,1.10645,-1.06934,-0.547852,1,-4,-16,-16,-3,2,13,-4,14482
-2.14775,0.28115,0.567109,84.375,-67.3125,85.5625,2.71826,-0.960938,-0.31543,-3,1,-6,9,-5,0,-21,14,14499
-2.108,0.369489,0.574243,107.375,-150.375,204.938,2.59082,-1.26904,0.134766,-16,-3,-8,-11,-7,-11,-2,2,14516
-2.108,0.369489,0.574243,107.375,-150.375,204.938,2.59082,-1.26904,0.134766,2,1,2,16,33,1,-9,8,14533
-2.0295,0.472732,0.606577,186.75,-215.813,219.5,3.18359,-1.04541,0.381836,1,1,7,-2,3,6,10,-4,14550
-1.94789,0.568126,0.639831,186.688,-186.875,216.5,2.53223,-0.930664,0.342773,-1,1,1,1,-12,3,-3,2,14568
-1.91394,0.647005,0.66222,60.6875,-128.75,193,1.78418,-0.452637,0.260254,3,6,1,1,6,3,-8,-4,14584
-1.88109,0.792248,0.714813,3.9375,-79.5,112.75,1.4624,0.0292969,0.0820313,-2,-2,-1,-2,0,4,-4,2,14648
-1.85129,0.834526,0.745164,21.4375,-95.1875,109.75,1.11816,0.065918,0.0786133,-4,-1,0,0,-2,-3,-6,3,14664
-1.80598,0.8745,0.786313,41.125,-104.875,95.625,0.663086,0.178223,0.0541992,-1,-2,-2,1,-4,-3,1,0,14680
-1.75052,0.906108,0.836219,47.375,-106.5,69.75,0.457031,0.368652,0.0800781,-1,-2,-2,-4,-3,1,-5,2,14697
-1.75052,0.906108,0.836219,47.375,-106.5,69.75,0.457031,0.368652,0.0800781,-1,0,-1,-3,1,-6,-2,-1,14714
-1.68889,0.92809,0.891068,50.875,-101.125,42.3125,0.178711,0.550293,0.20459,1,0,0,0,0,2,3,-1,14731
-1.61622,0.950745,0.951952,53,-85.5625,14.6875,-0.0161133,0.740234,0.395508,1,0,0,0,0,2,3,-1,14748
-1.55188,0.964906,1.00198,45.6875,-51.125,-20.5625,-0.133789,0.980469,0.563965,7,1,2,2,-2,-2,-2,-6,14765
-1.51309,0.968103,1.03032,18.4375,-11.625,-59.25,-0.217773,1.10645,0.609375,1,1,-1,4,5,0,-1,-1,14782
-1.52398,0.937207,1.01823,-9.25,23.4375,-103.25,-0.0307617,0.956055,0.58252,-3,-2,-3,-6,-2,1,-2,-3,14799
-1.55985,0.891344,0.988507,-39.5625,54.0625,-140.063,0.208008,0.711914,0.425781,-8,1,-2,0,-2,-3,3,-2,14816
-1.55985,0.891344,0.988507,-39.5625,54.0625,-140.063,0.208008,0.711914,0.425781,10,4,5,-2,-2,-7,0,-5,14833
-1.61869,0.834513,0.946984,-81.75,83,-163.563,0.446289,0.589355,0.260742,-3,1,-13,-4,4,-3,-20,0,14851
-1.69919,0.755486,0.891225,-114.625,129.438,-204.875,1.29102,0.424805,-0.027832,-22,-3,-7,-4,-11,1,-23,3,14868
-1.79925,0.650601,0.828301,-170.063,188.938,-271.625,2.96729,-0.131348,-0.280762,6,-6,-9,-3,-12,5,4,1,14885
-1.90037,0.543707,0.768656,-193.5,220.688,-256.063,3.24316,-0.844727,-0.177734,2,2,3,8,-8,-7,0,-4,14902
-1.97626,0.292141,0.652034,53,136.188,-151.813,2.7041,-0.562012,-0.356445,9,-2,1,-8,1,-4,2,1,14963
-1.99243,0.23741,0.641685,-38.6875,89.5,-132.063,2.18213,-0.115234,-0.237793,2,-1,4,-7,-7,9,-5,4,14981
-2.04615,0.196579,0.639529,-152.563,55.875,-102.938,1.56055,0.0771484,-0.205566,-5,0,2,3,-2,-2,-7,-10,14998
-2.10945,0.161072,0.636095,-179.438,47,-64.5625,1.21631,-0.599609,-0.362793,5,0,4,3,2,-6,1,-9,15016
-2.10945,0.161072,0.636095,-179.438,47,-64.5625,1.21631,-0.599609,-0.362793,1,-1,0,3,6,-7,2,-7,15033
-2.15267,0.141137,0.626121,-124.25,47.625,-21.375,0.654785,-1.01221,-0.346191,-3,-2,0,4,2,-5,1,-4,15051
-2.1699,0.121629,0.613116,-54.5625,45.75,-0.125,0.311035,-0.899414,-0.438965,-2,1,-2,-6,-8,-1,3,5,15069
-2.16989,0.114028,0.603133,8.1875,24.75,13.25,0.172363,-0.663086,-0.537109,-1,-2,-2,8,16,3,-16,-7,15086
-2.16797,0.115877,0.597655,27.5,3.625,17.6875,0.0292969,-0.37793,-0.609863,-3,0,-2,-1,-1,4,12,16,15103
-2.17662,0.127056,0.596782,4.9375,-16.6875,22.625,-0.151367,-0.375,-0.770508,0,1,-1,1,2,-2,-19,-5,15120
-2.17662,0.127056,0.596782,4.9375,-16.6875,22.625,-0.151367,-0.375,-0.770508,0,1,-1,1,2,-2,-19,-5,15137
-2.19123,0.145156,0.596907,-15.0625,-29.75,35.25,-0.230469,-0.592773,-0.896484,1,0,-2,0,-4,-3,0,12,15154
-2.20281,0.161916,0.594971,-13.625,-31.1875,47.625,-0.0610352,-0.77832,-0.900391,-2,-5,-6,-7,-7,-1,5,-1,15171
-2.20157,0.172558,0.590084,23.9375,-27.75,55.9375,0.23291,-0.816895,-0.919434,-8,-3,-7,-4,-5,1,-6,-1,15188
-2.20157,0.172558,0.590084,23.9375,-27.75,55.9375,0.23291,-0.816895,-0.919434,1,0,-2,1,3,3,-11,1,15205
-2.18524,0.189212,0.585899,66,-39.125,69.4375,0.249023,-0.748047,-0.830078,2,-2,0,-10,-8,-2,-1,1,15222
-1.92074,0.516275,0.646244,149.375,-170.875,217.125,2.66406,-0.769043,0.329102,-10,-1,-4,5,15,2,-12,6,15316
-1.92074,0.516275,0.646244,149.375,-170.875,217.125,2.66406,-0.769043,0.329102,3,-4,5,1,-4,4,7,-2,15333
-1.87438,0.594681,0.681888,78.5625,-154.688,185,2.07471,-0.498047,0.446777,-11,-1,0,-2,-2,-3,-4,5,15350
-1.8472,0.657516,0.711696,28.25,-117.625,152.813,1.67773,-0.317383,0.138672,-3,0,-5,0,-8,0,-6,2,15368
-1.83813,0.712675,0.735052,-16.6875,-92.5625,138.375,1.65137,-0.280762,0.205566,-2,-2,-3,-3,-4,0,-4,-4,15386
-1.81764,0.761044,0.76267,2.0625,-93.0625,135.313,1.34814,-0.00195313,0.249512,2,0,5,0,-5,-4,2,0,15404
-1.78419,0.810232,0.79833,21.375,-102,129.813,0.862793,0.0498047,0.212891,2,-1,1,-5,-7,-7,-5,-1,15420
-1.7443,0.853354,0.83843,27.75,-99.25,111.188,0.636719,0.160645,0.160645,3,-3,1,-2,-7,-6,-1,-3,15437
-1.7443,0.853354,0.83843,27.75,-99.25,111.188,0.636719,0.160645,0.160645,2,3,-1,0,-4,-1,4,-2,15454
-1.69757,0.890504,0.885242,23.4375,-92.125,91.4375,0.383789,0.321289,0.211914,4,1,3,3,9,-3,5,-9,15472
-1.6423,0.924546,0.936389,32.8125,-85,68.4375,0.142578,0.475098,0.277344,-5,-1,-4,-4,-6,-2,-3,2,15490
-1.58355,0.952399,0.987314,35.9375,-66.9375,37.3125,-0.00341797,0.691895,0.399414,-4,1,1,-2,-6,0,-8,4,15508
-1.53467,0.977243,1.0281,23.125,-36.1875,6.5,-0.223633,1.00049,0.523438,6,-2,0,-6,-3,2,13,-5,15525
-1.50754,0.994797,1.04837,3,6.75,-31.25,-0.239746,1.30176,0.644531,1,-8,-1,-1,6,2,2,-4,15542
-1.54045,0.966853,1.01847,-24.125,43.4375,-81.875,0.0302734,1.43994,0.64502,-2,3,-1,-6,-4,2,-8,6,15559
-1.54045,0.966853,1.01847,-24.125,43.4375,-81.875,0.0302734,1.43994,0.64502,-4,-1,5,-11,-10,-7,10,-5,15576
-1.93953,0.613816,0.773144,-249.875,252.125,-318.625,3.29492,-1.14648,-0.314941,-6,1,-7,-10,-3,-9,2,-23,15640
-1.93953,0.613816,0.773144,-249.875,252.125,-318.625,3.29492,-1.14648,-0.314941,2,-4,-12,-13,-5,7,6,-38,15657
-2.02759,0.48168,0.728485,-185.5,252.5,-303.438,4.79883,-1.23242,-0.277832,-5,-6,-2,24,30,11,-3,6,15674
-2.05672,0.362605,0.683533,-30.5,260.063,-250.813,4.38477,-1.49121,-0.571777,-9,6,13,22,25,-1,-14,-19,15691
-2.04329,0.272463,0.66107,58.375,173.125,-201.188,3.08838,-1.07275,-0.688965,1,4,6,-15,4,-6,-9,4,15708
-2.04493,0.208399,0.660725,-4.625,84.625,-162.875,2.35938,-0.150391,-0.466309,2,2,1,-13,3,6,-5,3,15725
-2.09768,0.163437,0.673692,-157.813,30,-130.688,1.85889,0.268555,-0.36377,3,-2,1,1,-11,7,-1,-1,15743
-2.18027,0.126158,0.671619,-236.125,62.3125,-86.875,1.38232,-0.730469,-0.499512,-7,-3,-6,1,-3,3,-10,-5,15760
-2.18027,0.126158,0.671619,-236.125,62.3125,-86.875,1.38232,-0.730469,-0.499512,0,-5,-2,2,0,-7,-2,7,15777
-2.24046,0.0952345,0.655232,-175.75,82,-30.625,0.779785,-1.03516,-0.174805,-2,0,1,-1,2,-6,-8,-3,15794
-2.25567,0.0633196,0.642243,-71.25,63.3125,-15.8125,0.51416,-0.88623,-0.156738,2,-2,2,-3,13,12,3,4,15811
-2.25402,0.0484866,0.635531,1.1875,23.8125,1.4375,0.380859,-0.535156,-0.349609,-4,0,-4,-9,-10,-3,1,18,15828
-2.25579,0.05185,0.634725,5.25,-12.9375,18.6875,0.15625,-0.392578,-0.506836,3,-1,0,-2,-7,-1,-4,8,15846
-2.26443,0.0724656,0.633399,-7.75,-31.9375,43.1875,-0.13916,-0.458496,-0.695801,-7,-2,0,1,-4,-4,-9,-13,15863
-2.27347,0.102198,0.627508,-5.5625,-29,57.875,-0.411133,-0.523926,-0.796875,6,0,-3,0,0,2,3,18,15880
-2.27347,0.102198,0.627508,-5.5625,-29,57.875,-0.411133,-0.523926,-0.796875,-2,0,-2,2,3,-4,3,-3,15897
-2.24966,0.236997,0.570964,65.75,-55.25,122.313,0.675293,-0.689941,-0.499023,-19,-4,-12,11,17,-8,-34,9,15984
-2.22477,0.275773,0.562373,77.625,-49.9375,102,1.92041,-0.815918,-0.410645,8,-1,2,8,2,4,12,-3,16001
-2.22477,0.275773,0.562373,77.625,-49.9375,102,1.92041,-0.815918,-0.410645,18,0,-3,-14,-21,6,37,-8,16018
-2.14912,0.428176,0.569168,113.438,-167.313,189.938,3.18457,-1.08154,-0.0297852,-1,-2,-1,-4,2,-2,6,-1,16036
-2.14912,0.428176,0.569168,113.438,-167.313,189.938,3.18457,-1.08154,-0.0297852,-10,1,-2,5,15,6,-6,1,16054
-2.08048,0.526574,0.593887,164,-199.938,208.688,2.91113,-1.03516,0.266113,-5,1,7,-8,-11,-5,3,0,16071
-2.01857,0.615657,0.623323,131.5,-181.188,194,2.45117,-1.08105,0.203613,6,2,2,4,7,2,15,-4,16088
-1.97997,0.686692,0.649754,64.6875,-139.188,160.313,2.02588,-0.53125,0.227051,3,-2,-2,0,-7,-3,6,-2,16106
-1.95398,0.744587,0.672726,31.4375,-110,133.688,1.85107,-0.345215,0.133789,1,0,0,-2,-4,-3,7,4,16123
-1.95398,0.744587,0.672726,31.4375,-110,133.688,1.85107,-0.345215,0.133789,-2,-3,-1,-2,-11,3,-1,-6,16139
-1.93229,0.796897,0.695441,16.625,-98,122.688,1.6543,-0.0356445,0.0786133,2,-1,1,1,4,0,-6,-8,16156
-1.907,0.841873,0.72441,11.6875,-101.5,113.5,1.30127,0.146484,0.0473633,2,-1,3,-3,-2,-1,6,0,16173
-1.86688,0.888193,0.7658,23.625,-116.25,109.188,0.819824,0.133301,0.0810547,0,0,2,0,5,4,5,0,16190
-1.80845,0.927672,0.817031,51.3125,-116.875,87,0.537109,0.241699,0.106445,-6,-2,-1,-2,-2,-8,-2,6,16207
-1.73908,0.95805,0.874125,66.125,-110.375,64.25,0.382324,0.379395,0.131348,2,0,-1,-4,-7,-6,7,-3,16224
-1.65979,0.981059,0.936342,77.375,-104.375,47.4375,0.197754,0.484863,0.298828,-2,0,-1,0,3,3,-4,-3,16241
-1.47302,1.03203,1.06208,90.25,-42.6875,-5.8125,-0.351563,1.05811,0.688477,-9,-3,-2,-6,-6,-3,-3,-1,16300
-1.49404,0.969255,1.02746,-24.3125,37.4375,-120.563,-0.0913086,1.39063,0.572754,9,3,-1,2,-1,-1,-6,1,16317
-1.55352,0.92198,0.992417,-95.25,60,-153.688,0.188965,1.28174,0.58252,23,16,10,4,-2,-4,5,-8,16334
-1.55352,0.92198,0.992417,-95.25,60,-153.688,0.188965,1.28174,0.58252,-12,-8,-8,8,10,0,-15,0,16352
-1.6485,0.854803,0.946167,-171.938,92.9375,-194,0.667969,0.891602,0.306152,6,-2,-5,-3,-3,0,26,-8,16368
-1.78138,0.759332,0.894598,-274.625,140.25,-256.313,2.87305,0.520996,-0.337891,-7,-5,-18,-4,13,-3,8,-6,16386
-1.91227,0.641111,0.824467,-245,240.938,-284.5,3.0415,-0.76123,-0.291504,4,-4,-3,-1,-4,-9,5,-10,16402
-2.01271,0.523493,0.770231,-202.125,249.125,-262.563,4.03467,-1.06836,-0.111816,19,6,-3,17,6,0,12,14,16419
-2.06575,0.417018,0.718226,-84.625,256.375,-212.063,3.79004,-1.11621,-0.731934,5,0,-1,14,2,6,26,1,16436
-2.06575,0.417018,0.718226,-84.625,256.375,-212.063,3.79004,-1.11621,-0.731934,-11,1,6,4,3,-2,-24,8,16453
-2.08384,0.330985,0.688087,-19.9375,189.5,-177.25,2.94678,-0.935059,-0.518555,-4,7,6,-8,-1,-6,-17,3,16471
-2.0868,0.262288,0.677275,0,122.375,-156.875,2.3833,-0.371582,-0.614746,-3,7,4,-11,-1,4,-1,4,16488
-2.12115,0.205781,0.678668,-99.3125,79.1875,-141.438,1.85156,0.289551,-0.429688,2,-4,4,2,-2,7,-5,-2,16505
-2.20007,0.160398,0.680894,-227.375,67,-111.563,1.56592,-0.150879,-0.601074,3,-3,0,2,-1,-6,1,3,16522
-2.27829,0.115608,0.671065,-222.938,90.75,-69.5,0.929199,-0.824707,-0.479004,-4,-3,-1,0,-7,-1,-10,2,16539
-2.32314,0.0828283,0.658849,-131.125,81,-37,0.62207,-0.996094,-0.452637,3,-2,-2,-1,-2,-1,12,8,16556
-2.31132,0.0828028,0.6483,46.875,-32.0625,24.375,-0.178223,-0.364258,-0.608398,-6,-1,-2,-3,-4,-5,-10,-8,16626
-2.30424,0.106991,0.652874,34.0625,-46.25,29.3125,-0.331055,-0.515137,-0.74707,-5,-3,-2,-2,-2,1,7,-10,16644
-2.29907,0.134331,0.653872,28.5625,-45.125,43.875,-0.372559,-0.68457,-0.876953,4,2,-3,-1,4,-1,-5,4,16661
-2.29746,0.153263,0.640939,31.6875,-13.625,65.25,-0.125977,-0.664063,-1.01221,4,1,6,6,3,6,5,-5,16678
-2.29506,0.169653,0.62339,43.4375,-14.25,83.875,0.172363,-0.573242,-1.0459,5,-2,-3,-9,-6,-1,29,-6,16695
-2.29506,0.169653,0.62339,43.4375,-14.25,83.875,0.172363,-0.573242,-1.0459,-9,3,4,3,-1,0,-16,8,16712
-2.28004,0.202705,0.610104,53.9375,-40.6875,102.5,0.364746,-0.577148,-0.793457,-6,1,-7,-5,-5,-5,-27,5,16729
-2.26692,0.239419,0.601226,41.75,-61.8125,111.688,0.932129,-0.825195,-0.588379,-6,1,-7,-5,-5,-5,-27,5,16746
-2.24486,0.296688,0.602434,62.125,-106.5,124.938,2.37939,-1.1543,-0.583008,-7,0,-13,11,10,-6,-27,-3,16764
-2.19922,0.384333,0.605828,127.563,-159.625,194.313,3,-0.899902,-0.334961,14,2,1,10,7,1,12,-2,16782
-2.10953,0.483587,0.632463,225.063,-214.688,199.063,3.23047,-1.00049,0.0874023,-12,7,6,-14,-9,5,-8,12,16799
-2.10953,0.483587,0.632463,225.063,-214.688,199.063,3.23047,-1.00049,0.0874023,4,5,12,-2,-3,1,21,-9,16816
-2.01225,0.571898,0.657602,242.813,-174.125,194.188,2.68066,-1.20264,-0.00976563,-8,-2,-1,-3,0,2,-6,-1,16833
-1.96124,0.650878,0.677267,113.625,-133.813,188.563,2.35205,-0.499023,0.210938,-3,8,1,-2,-1,-6,-18,-2,16850
-1.91235,0.718168,0.699174,99.9375,-114.5,162.75,2.146,-0.417969,0.193359,-3,-4,-5,-6,-2,1,-2,6,16868
-1.87109,0.777912,0.721102,76,-97.75,147.625,2.0166,-0.168945,0.0234375,-2,-5,-3,-8,-5,-1,-3,1,16886
-1.67466,0.955215,0.866909,57.25,-87.1875,87.5625,0.42627,0.34375,0.155273,-2,-2,0,1,-4,-1,-2,1,16971
-1.61642,0.98824,0.91644,44.375,-77.75,69,0.228027,0.490234,0.165527,-5,-1,-2,-3,4,5,-8,5,16988
-1.55966,1.01724,0.966307,30.6875,-60.75,44.5625,-0.0483398,0.61377,0.302246,-6,-2,-4,-4,-4,8,-4,-1,17005
-1.50234,1.04442,1.01883,16.9375,-46.75,24.1875,-0.341797,0.759766,0.476074,5,-1,3,2,-15,-24,11,-2,17022
-1.45543,1.06529,1.06361,1.8125,-25.875,-7.375,-0.450684,0.949707,0.552246,-2,-7,-2,-5,1,1,5,-8,17039
-1.43861,1.07486,1.08517,-25.875,1.375,-49.375,-0.313477,1.16357,0.484863,6,4,-2,-6,-10,-6,8,-5,17056
-1.43861,1.07486,1.08517,-25.875,1.375,-49.375,-0.313477,1.16357,0.484863,4,2,-1,5,9,-4,2,-2,17072
-1.46994,1.06537,1.06255,-46.9375,44.125,-99.75,-0.105957,1.10645,0.285156,9,-1,3,4,1,4,1,-5,17089
-1.53333,1.02454,1.01948,-77.5625,56.5,-133.813,0.0888672,0.960449,0.213379,-10,1,4,-2,-10,-3,-3,4,17106
-1.62785,0.967885,0.959058,-125.313,96.4375,-163.5,0.833496,0.6875,0.0888672,5,2,-15,-5,5,2,5,-13,17124
-1.74179,0.886682,0.894829,-179.125,136.375,-219,2.95215,0.15625,-0.325195,5,-13,-14,0,-12,2,16,-3,17141
-1.84881,0.788712,0.832258,-173.75,179.75,-246.875,2.89648,-0.850586,-0.108398,-11,-13,-16,-14,-7,-4,8,-5,17158
-1.92118,0.68462,0.789957,-125.375,177.625,-256.188,3.43164,-0.910645,-0.102539,-9,-9,-5,-6,-10,6,-2,3,17175
-1.92118,0.68462,0.789957,-125.375,177.625,-256.188,3.43164,-0.910645,-0.102539,2,3,0,-1,11,5,-4,15,17192
-1.96119,0.581003,0.756914,-59.25,178.813,-249.313,3.69678,-0.736816,-0.302246,-4,-2,3,4,-2,-7,-6,2,17209
-2.00679,0.487083,0.727458,-87.3125,174.5,-217.438,3.10986,-0.523438,-0.194824,-4,17,13,-2,-6,-11,-14,2,17226
-2.23126,0.218992,0.692368,-181.625,71.75,-92.6875,1.06299,-0.610352,-0.535156,6,-3,-2,1,-6,-8,-3,14,17314
-2.27075,0.187483,0.686847,-110.938,60.375,-49.8125,0.609863,-0.798828,-0.588379,-3,-3,1,-1,-9,-10,-3,-6,17330
-2.28994,0.161676,0.680505,-55.8125,43.3125,-21.875,0.23291,-0.896973,-0.706543,-3,-3,1,-1,-9,-10,-3,-6,17347
-2.28978,0.152922,0.672571,4.9375,25.125,5.0625,0.00634766,-0.812988,-0.730469,-6,-1,-2,-1,2,-1,1,-21,17363
-2.28978,0.152922,0.672571,4.9375,25.125,5.0625,0.00634766,-0.812988,-0.730469,-6,-1,-2,-1,2,-1,1,-21,17379
-2.28061,0.157392,0.666569,42.875,3.125,18.75,-0.167969,-0.637207,-0.812012,4,0,-1,1,-4,-1,4,6,17396
-2.28061,0.157392,0.666569,42.875,3.125,18.75,-0.167969,-0.637207,-0.812012,4,0,-1,1,-4,-1,4,6,17413
-2.27662,0.173815,0.663204,33.1875,-19.3125,31.875,-0.321289,-0.574219,-0.871582,0,-1,0,0,-1,-4,-2,0,17431
-2.27919,0.213713,0.641781,19,-18.8125,82.75,0.11377,-0.807617,-0.955078,2,-1,-3,-1,2,-3,-9,8,17449
-2.26737,0.24329,0.62316,49.0625,-22.0625,105.25,0.321777,-0.710449,-0.816406,-6,-8,-6,1,-1,0,-7,-8,17466
-2.24228,0.288907,0.608599,83.4375,-57.9375,134.25,0.270996,-0.837891,-0.712402,-6,-8,-6,1,-1,0,-7,-8,17481
-2.21861,0.337615,0.59578,78.1875,-71.0625,149,0.953125,-0.911133,-0.610352,-1,-3,-8,-3,2,2,-11,-4,17499
-2.18245,0.396395,0.587973,111.75,-82.4375,148.688,2.54688,-0.868164,-0.490234,21,0,3,16,9,0,32,-16,17515
-2.18245,0.396395,0.587973,111.75,-82.4375,148.688,2.54688,-0.868164,-0.490234,13,1,-1,-5,-12,-10,8,0,17532
-2.1457,0.480593,0.576794,118.875,-110.813,216.25,2.83887,-0.717773,-0.234863,-6,-8,-4,-6,8,5,0,10,17549
-2.08858,0.582069,0.588696,146.063,-176.5,233.188,2.9375,-1.00879,0.154297,-6,1,1,-7,-5,-2,-3,1,17566
-1.90621,0.853526,0.671309,70.6875,-128.438,183.938,1.97852,-0.344238,0.201172,0,6,-1,-3,-1,8,4,0,17623
-1.85865,0.92005,0.704565,62.1875,-116,163,1.80127,-0.327148,0.131836,-4,2,-5,3,7,-6,-10,-1,17640
-1.80507,0.973724,0.746564,54.75,-110.375,144.875,1.48389,-0.0449219,0.0634766,-10,-14,-3,-7,-4,3,2,0,17657
-1.80507,0.973724,0.746564,54.75,-110.375,144.875,1.48389,-0.0449219,0.0634766,4,7,3,-2,0,-1,1,1,17674
-1.66542,1.06306,0.87082,45.8125,-113.75,104.625,0.729492,0.174805,0.119141,-8,-3,-5,2,-8,1,-8,-4,17691
-1.66542,1.06306,0.87082,45.8125,-113.75,104.625,0.729492,0.174805,0.119141,-4,6,2,-2,-2,-18,9,-3,17708
-1.57931,1.09234,0.948679,48.8125,-106.75,78.375,0.539551,0.27002,0.189941,4,5,4,2,0,-1,6,-6,17725
-1.48343,1.11937,1.03455,46.1875,-93,62.625,0.365234,0.495605,0.221191,-2,-7,-3,-1,6,-8,1,-10,17743
-1.39044,1.1456,1.12042,29.5625,-68.0625,48.3125,0.10791,0.69043,0.399902,-1,-5,-2,-1,6,1,-8,-2,17760
-1.30817,1.16346,1.20143,1.9375,-42.8125,14.75,-0.102539,0.839844,0.60791,1,0,1,-3,-5,-2,-5,5,17777
-1.30817,1.16346,1.20143,1.9375,-42.8125,14.75,-0.102539,0.839844,0.60791,-1,-16,-4,0,-8,5,1,-1,17794
-1.21783,1.18889,1.30063,-40.6875,15.625,-41.625,-0.308105,1.24707,0.729004,-3,3,4,0,6,-1,8,0,17811
-1.21783,1.18889,1.30063,-40.6875,15.625,-41.625,-0.308105,1.24707,0.729004,3,6,0,-5,-4,2,6,3,17827
-1.2519,1.18812,1.28776,-87.3125,47.1875,-88.1875,-0.154297,1.22266,0.580566,-8,0,2,-6,-3,0,5,1,17844
-1.388,1.15282,1.18389,-119.125,93.625,-144.625,0.197754,1.1748,0.40625,5,1,2,-3,-6,8,52,20,17862
-1.54294,1.08595,1.05984,-123.688,132.75,-212.063,0.997559,0.893555,-0.0942383,-15,-3,-13,-15,-1,-4,-73,16,17879
-1.90015,0.691054,0.815409,2.25,86.5,-219.688,2.29883,-1.68799,-0.836914,-18,-7,14,30,14,-1,-18,9,17956
-1.90015,0.691054,0.815409,2.25,86.5,-219.688,2.29883,-1.68799,-0.836914,8,10,3,-22,8,-1,-5,5,17973
-1.88305,0.639543,0.831175,21.1875,12.9375,-151.313,2.45605,-0.603516,-0.533203,5,-2,-2,-19,-4,1,-3,8,17990
-1.93133,0.59115,0.840741,-154.438,24.5625,-138.438,2.54541,0.339844,-0.59082,3,-2,2,4,-7,-4,-3,0,18007
-2.02291,0.54082,0.83174,-248.75,76.6875,-123.938,1.81445,-1.01953,-0.321777,-7,-5,-3,1,-7,4,2,-8,18024
-2.09788,0.506168,0.815741,-191.875,81.9375,-69.1875,1.29883,-1.125,-0.246582,0,-2,1,3,-2,-3,-8,-6,18041
-2.09788,0.506168,0.815741,-191.875,81.9375,-69.1875,1.29883,-1.125,-0.246582,-6,0,-1,-3,4,1,-5,1,18058
-2.16879,0.439011,0.79515,-67.875,41.375,-15.25,0.713867,-0.543945,-0.366211,2,0,-2,-4,7,-1,-4,-7,18076
-2.16879,0.439011,0.79515,-67.875,41.375,-15.25,0.713867,-0.543945,-0.366211,1,-1,0,2,2,-3,2,0,18093
-2.20226,0.423196,0.78025,-69.375,32.75,14.0625,0.38623,-0.30957,-0.387207,-1,0,-4,1,-4,-1,3,-1,18110
-2.24266,0.417845,0.764389,-84.75,26.875,24.1875,0.0786133,-0.25293,-0.448242,-2,-2,0,0,3,6,-3,-3,18127
-2.28806,0.419247,0.748989,-97.125,22.875,24.875,-0.263672,-0.308594,-0.586914,-2,-3,-2,1,-1,0,-1,-13,18143
-2.28806,0.419247,0.748989,-97.125,22.875,24.875,-0.263672,-0.308594,-0.586914,4,1,0,0,-8,-9,1,1,18160
-2.32675,0.423722,0.735263,-80.25,19.4375,22,-0.521484,-0.441406,-0.729004,-6,-4,-4,-3,4,15,-5,-10,18177
-2.34123,0.419457,0.699224,52.9375,28.1875,43.9375,-0.188965,-0.882813,-1.18066,5,-1,-5,-5,-4,-8,3,4,18194
-2.34123,0.419457,0.699224,52.9375,28.1875,43.9375,-0.188965,-0.882813,-1.18066,-2,-3,-2,-5,-4,-3,-2,-2,18210
-2.20615,0.497986,0.631905,101.563,-27.5625,94.75,2.34033,-0.960449,-0.756836,23,19,8,8,-12,1,45,0,18299
-2.10148,0.65982,0.650212,184.625,-185.125,193.563,3.34912,-1.39893,0.0854492,-2,-8,-1,-8,4,7,12,4,18316
-2.10148,0.65982,0.650212,184.625,-185.125,193.563,3.34912,-1.39893,0.0854492,-20,-9,-4,3,9,0,-15,-6,18333
-2.01169,0.748323,0.674706,212,-166.063,199.563,2.85156,-1.20654,-0.183594,14,34,11,9,-1,-17,7,4,18350
-1.95563,0.826054,0.695567,118.25,-128.125,187.125,2.2085,-0.474609,0.108887,0,-16,-2,2,-6,-19,-2,-2,18368
-1.90039,0.890795,0.721592,101.5,-110.688,156.813,1.98682,-0.29248,-0.0512695,-3,1,-2,1,-6,-6,-7,5,18385
-1.85201,0.949142,0.756141,60.4375,-107.25,141.125,1.85352,0.090332,-0.111328,-1,-10,-4,-1,0,4,-11,-13,18403
-1.78543,0.99976,0.806068,71.75,-117.25,131.75,1.43652,0.165039,-0.0244141,-2,2,0,-6,-5,13,-13,2,18420
-1.69217,1.04785,0.880369,85.25,-131.938,122.563,1.01611,0.208496,0.0839844,-1,-4,0,-1,8,-1,-5,5,18438
-1.58868,1.08399,0.96467,83.625,-122.438,95.75,0.723145,0.353027,0.104492,-4,-2,-3,-3,-5,6,-4,-1,18456
-1.58868,1.08399,0.96467,83.625,-122.438,95.75,0.723145,0.353027,0.104492,5,-4,-5,-3,-4,4,-1,-1,18473
-1.48488,1.11299,1.05793,58.4375,-115.313,82.25,0.550293,0.555176,0.187988,-10,-7,0,-4,4,13,-6,3,18490
-1.37179,1.12971,1.15706,62.6875,-107.5,57.1875,0.211914,0.630371,0.492676,3,-7,-3,-3,4,-7,7,-5,18508
-1.25615,1.14227,1.26102,39.375,-74.1875,19.5625,-0.143555,0.683105,0.625488,-3,5,-3,-4,-6,3,-4,5,18524
-1.18197,1.14695,1.32982,5.1875,-30,-24.6875,-0.27832,0.92041,0.710449,-4,-3,-3,-4,1,1,-4,0,18541
-1.15008,1.14555,1.35322,1.1875,15.25,-62.125,-0.246582,1,0.718262,-4,-14,-7,-1,0,-1,1,0,18558
-1.30665,1.10419,1.21852,-85.4375,102.438,-135.313,0.246582,0.749512,0.419922,-8,-11,-2,3,-3,0,-1,-4,18607
-1.44599,1.05865,1.10903,-124.75,121.063,-161.875,0.416992,0.611816,0.0976563,3,0,-12,-5,-8,0,8,-5,18624
-1.59173,0.991609,1.00548,-163.5,144.438,-193.625,1.24951,0.385742,0.0371094,-3,2,-13,-6,-11,-7,-14,4,18641
-1.59173,0.991609,1.00548,-163.5,144.438,-193.625,1.24951,0.385742,0.0371094,1,-4,-7,-9,-7,12,10,-3,18658
-1.82544,0.810967,0.839849,-136.5,196.875,-246.563,3.12695,-0.769043,-0.129883,2,-2,1,-6,-5,0,19,1,18675
-1.82544,0.810967,0.839849,-136.5,196.875,-246.563,3.12695,-0.769043,-0.129883,-1,12,-3,7,2,2,-13,9,18692
-1.8992,0.722087,0.779786,-91.8125,192,-208.375,3.19189,-0.771484,-0.11084,-6,-4,0,0,-8,-7,-5,3,18709
-1.95282,0.638938,0.733721,-70.625,179.188,-187.875,3.03955,-0.592285,-0.312012,0,0,1,-4,1,4,7,1,18726
-1.99939,0.563043,0.699207,-77.375,160.75,-168,2.78662,-0.453613,-0.255859,-2,3,2,-2,-1,-4,-14,-2,18742
-2.04862,0.494169,0.676132,-107.625,137.938,-152.375,2.57227,-0.324219,-0.42627,-1,-3,3,-2,-6,-10,-11,-7,18759
-2.04862,0.494169,0.676132,-107.625,137.938,-152.375,2.57227,-0.324219,-0.42627,-2,-1,3,3,6,0,2,3,18776
-2.1136,0.435716,0.662214,-168.313,112.875,-128.875,1.86914,-0.313965,-0.559082,-2,1,2,0,-3,0,-1,3,18793
-2.17666,0.397256,0.659583,-177.938,65.5,-88.8125,1.23877,-0.638672,-0.563965,-2,-1,-2,1,-10,-9,-6,-1,18810
-2.22567,0.369419,0.654979,-135.563,46.5,-42.25,0.746094,-0.822266,-0.585938,-1,-3,1,1,-8,-7,0,2,18827
-2.22567,0.369419,0.654979,-135.563,46.5,-42.25,0.746094,-0.822266,-0.585938,3,-3,-1,-3,0,-1,-3,11,18845
-2.2662,0.329102,0.644726,-25.5625,17.125,-4,0.0576172,-0.562988,-0.567871,-1,0,0,0,1,-5,-6,-1,18862
-2.27668,0.340726,0.641877,7.125,-27.625,22.8125,-0.243652,-0.494141,-0.768555,0,-2,-2,-4,-4,3,11,13,18934
-2.26938,0.354239,0.639726,33.125,-33.625,42.9375,-0.134277,-0.671387,-0.765625,0,-4,-6,-1,1,-4,-18,4,18951
-2.25979,0.363473,0.631465,48.875,-29.375,62.5,0.223633,-0.677246,-0.806641,-6,-2,-7,0,-4,-1,1,-7,18967
-2.24098,0.379603,0.621871,76,-35,76.4375,0.193848,-0.577637,-0.694824,-4,-1,-6,7,6,0,3,3,18984
-2.20793,0.402204,0.615226,99.375,-50.8125,96.8125,0.231934,-0.832031,-0.567383,-3,1,-9,8,14,6,-23,7,19001
-2.20793,0.402204,0.615226,99.375,-50.8125,96.8125,0.231934,-0.832031,-0.567383,-8,0,-8,-2,-2,-1,-7,3,19018
-2.14348,0.485323,0.605198,111.625,-71.5625,114.313,2.70898,-0.953613,-0.407227,4,-5,-4,-11,-16,-2,15,-11,19034
-2.14348,0.485323,0.605198,111.625,-71.5625,114.313,2.70898,-0.953613,-0.407227,12,-3,6,5,-8,-7,20,-12,19050
-2.10054,0.5593,0.602691,127.063,-105.438,183.875,2.93457,-1.00195,-0.101563,-12,-1,2,4,8,8,-8,10,19067
-2.03439,0.642111,0.62064,160.313,-150.938,188.375,3.12061,-0.870117,0.183105,-2,0,5,-4,1,5,10,1,19085
-1.96911,0.71996,0.640865,150.5,-134.063,183.813,2.44482,-0.814941,0.185547,-3,1,9,1,9,-5,-2,2,19101
-1.91935,0.793312,0.666446,92.4375,-126.125,176.438,2.08203,-0.680664,0.269043,9,2,8,1,4,9,20,-7,19118
-1.91935,0.793312,0.666446,92.4375,-126.125,176.438,2.08203,-0.680664,0.269043,0,-2,-2,-2,-2,3,0,2,19135
-1.87019,0.854032,0.690646,89.625,-100.313,149.938,1.98291,-0.500977,0.183105,-1,-3,-1,1,-9,-5,0,-4,19152
-1.828,0.909948,0.714831,67.9375,-86.125,141.813,1.87305,-0.0756836,0.0888672,2,1,0,0,13,-4,5,-4,19168
-1.78207,0.958413,0.746765,56.3125,-86.625,134.75,1.46582,0.135742,0.135742,0,0,1,-2,-6,-2,2,1,19185
-1.45286,1.10507,1.01934,67.5,-87,56.875,0.253906,0.662598,0.273438,3,-1,-2,-4,-4,1,4,-3,19260
-1.36065,1.12725,1.10219,37.75,-70.875,36.0625,0.0844727,0.737305,0.340332,0,-2,0,-2,-3,6,-1,3,19276
-1.36065,1.12725,1.10219,37.75,-70.875,36.0625,0.0844727,0.737305,0.340332,-6,-3,-3,0,-1,-3,4,-2,19293
-1.28941,1.14096,1.1732,0,-44.0625,7.1875,-0.0664063,0.808105,0.491211,2,-4,0,1,0,4,-4,-1,19310
-1.24099,1.14611,1.2242,-19,-15.375,-25.3125,-0.205078,0.830566,0.637207,2,3,0,-2,-3,1,-10,1,19327
-1.22868,1.13954,1.23957,-27.4375,12.4375,-59.8125,-0.245117,0.661621,0.614258,5,-3,-4,8,5,1,-3,-9,19344
-1.25962,1.12488,1.2206,-59.5,38.9375,-94.3125,-0.0512695,0.72998,0.5,8,4,3,-7,-7,0,15,-6,19361
-1.25962,1.12488,1.2206,-59.5,38.9375,-94.3125,-0.0512695,0.72998,0.5,6,0,1,-6,-3,-5,3,-2,19378
-1.48332,1.04149,1.04458,-129.125,116.188,-164.875,0.745117,0.689941,0.0844727,-3,-2,-10,3,13,6,-23,11,19395
-1.48332,1.04149,1.04458,-129.125,116.188,-164.875,0.745117,0.689941,0.0844727,-9,-3,0,8,0,-9,-2,-11,19411
-1.64871,0.960784,0.932835,-203.75,171.938,-232.125,3.21436,0.429688,-0.236816,16,3,-2,3,-8,2,20,-13,19428
-1.82064,0.867035,0.823339,-244.688,232.75,-233.75,3.12402,-0.796387,-0.0253906,-10,-5,-12,15,2,-14,-14,-1,19445
-1.92634,0.770058,0.756398,-162.125,208.375,-226.563,3.43311,-0.878418,-0.012207,16,0,-2,-1,20,11,15,30,19463
-1.98772,0.676251,0.710104,-88.4375,193.625,-211.313,3.35352,-0.816406,-0.522949,0,-1,0,-7,-12,-1,11,3,19480
-1.98772,0.676251,0.710104,-88.4375,193.625,-211.313,3.35352,-0.816406,-0.522949,-5,-1,3,-4,12,1,-10,-6,19497
-2.02705,0.59245,0.67766,-57.5,169.5,-186.125,2.87402,-0.644043,-0.339355,1,-2,2,-2,-4,-3,-3,-8,19514
-2.18484,0.416795,0.649724,-200.125,72.25,-103.188,1.33691,-0.544922,-0.438477,-2,0,1,-1,-3,-7,-13,-4,19572
-2.24168,0.375136,0.644636,-160.938,72.6875,-72.5,0.776367,-0.799805,-0.348633,1,1,-3,1,-6,-4,-6,-8,19588
-2.26867,0.33283,0.642336,-83.875,50.4375,-47.3125,0.512695,-0.704102,-0.421875,3,-1,0,-3,3,-3,5,-6,19605
-2.27698,0.30636,0.639757,-19.4375,30.0625,-25.625,0.308594,-0.580078,-0.529785,-6,-3,-3,-4,0,3,1,-2,19622
-2.27367,0.299306,0.638726,16.375,1.3125,-0.625,0.0375977,-0.541504,-0.583496,-2,-1,-2,-3,1,-1,-3,6,19639
-2.27367,0.299306,0.638726,16.375,1.3125,-0.625,0.0375977,-0.541504,-0.583496,-2,-1,-2,-3,1,-1,-3,6,19656
-2.27126,0.305481,0.641009,17.625,-23.75,12.5625,-0.151855,-0.507813,-0.668945,-5,-2,-2,3,2,4,-11,4,19673
-2.2665,0.317847,0.643243,27.9375,-28.9375,16.5,-0.345703,-0.5,-0.73877,4,-1,1,3,4,3,20,-1,19690
-2.26629,0.32957,0.644384,17.6875,-29.9375,21.5625,-0.319824,-0.620605,-0.869629,0,-1,-1,-4,-6,3,5,-2,19706
-2.26967,0.333931,0.638237,16.3125,-22.1875,41.5625,0.101074,-0.694336,-0.979492,5,0,0,-3,3,2,5,-2,19723
-2.26967,0.333931,0.638237,16.3125,-22.1875,41.5625,0.101074,-0.694336,-0.979492,0,-2,-1,4,6,-3,-18,-1,19739
-2.25265,0.380181,0.617521,48.25,-53.8125,106.938,0.305176,-0.868652,-0.703125,-1,-4,0,-4,-7,5,6,2,19756
-2.25265,0.380181,0.617521,48.25,-53.8125,106.938,0.305176,-0.868652,-0.703125,-5,1,-6,-4,-4,1,-13,5,19774
-2.23792,0.41344,0.611322,46.875,-60.875,104.063,1.0835,-0.875488,-0.507813,-5,1,-6,-4,-4,1,-13,5,19791
-2.20415,0.461241,0.615874,91.125,-92.4375,101.813,2.60498,-0.919922,-0.403809,5,-2,-8,0,-10,-11,-10,-9,19808
-2.15493,0.545555,0.620738,134.188,-148.563,191.188,2.69775,-1.03418,-0.131348,0,-2,-1,0,2,2,21,2,19825
-1.91042,0.862462,0.723498,42.875,-117.375,163.563,1.90381,-0.486328,0.179199,-3,-5,-4,1,-3,-7,2,-4,19896
-1.91042,0.862462,0.723498,42.875,-117.375,163.563,1.90381,-0.486328,0.179199,-1,-1,-4,-1,15,2,-10,-3,19912
-1.86997,0.92546,0.757254,40.125,-114.125,152.438,1.94775,-0.267578,0.0668945,-3,-3,-2,-3,-4,8,2,0,19929
-1.81827,0.985805,0.800702,46.875,-115.688,146.938,1.6582,0.0380859,0.0610352,-1,0,-3,-3,-5,3,-7,1,19946
-1.81827,0.985805,0.800702,46.875,-115.688,146.938,1.6582,0.0380859,0.0610352,3,0,1,0,-1,-2,-2,2,19963
-1.65032,1.08452,0.949895,60.5,-135.188,117.125,0.686523,0.125488,0.119629,-3,1,2,-1,-16,-18,-2,-1,19981
-1.53962,1.1168,1.04362,76.4375,-121.438,88.0625,0.472168,0.322266,0.144043,1,0,-2,1,-2,0,-1,-2,19998
-1.53962,1.1168,1.04362,76.4375,-121.438,88.0625,0.472168,0.322266,0.144043,-2,-1,0,2,1,-1,1,-2,20015
-1.41984,1.13807,1.13876,95.5625,-107,64.6875,0.15625,0.469727,0.229004,7,5,2,2,-3,1,4,-1,20033
-1.30333,1.14921,1.22659,100.625,-89.5625,42.1875,-0.0683594,0.663574,0.366699,1,-3,2,3,12,-5,-10,-7,20050
-1.18261,1.16436,1.31567,90.8125,-51.75,9.875,-0.206543,0.94043,0.518555,-4,-8,-1,-3,1,2,2,-5,20067
-1.10283,1.17472,1.37603,40.625,-11.875,-25,-0.28125,1.15967,0.630371,2,5,3,5,10,-5,-22,3,20084
-1.10283,1.17472,1.37603,40.625,-11.875,-25,-0.28125,1.15967,0.630371,2,5,3,5,10,-5,-22,3,20100
-1.08238,1.17304,1.3959,-21.6875,16.1875,-66.5,-0.0644531,1.12256,0.612305,-16,-4,-15,5,5,-5,-78,17,20118
-1.1672,1.14399,1.32427,-61.9375,45.8125,-125.563,0.28418,1.12256,0.435059,-11,-4,-6,-12,3,-1,-17,6,20135
-1.30454,1.09146,1.20632,-92.5,94.0625,-200.938,0.92334,1.11377,0.122559,6,-2,1,9,9,-1,14,-7,20152
-1.91663,0.716646,0.79509,-120.563,210.688,-238.5,3.22803,-0.322754,0.102051,-3,-4,-6,1,5,-1,10,-11,20238
-1.97725,0.626159,0.743728,-81.9375,202.625,-199,3.4043,-0.529297,-0.195801,5,3,2,2,6,3,3,1,20255
-2.0166,0.552294,0.702639,-47.125,176.563,-152.438,3.03613,-0.48291,-0.291016,-7,0,1,-3,16,22,-3,-11,20272
-2.05266,0.493216,0.67522,-64.125,136.563,-120.938,2.48486,-0.427246,-0.32959,-9,0,1,-7,-5,-11,-4,-3,20289
-2.09765,0.447664,0.662331,-112.438,91.9375,-98.3125,1.89307,-0.344727,-0.358887,-4,2,3,3,-6,6,-1,8,20306
-2.16099,0.398762,0.65621,-173,73.5,-89,1.34229,-0.473145,-0.418945,3,-1,3,-4,-1,-7,5,-3,20323
-2.16099,0.398762,0.65621,-173,73.5,-89,1.34229,-0.473145,-0.418945,6,-1,1,-1,19,-36,10,5,20340
-2.16099,0.398762,0.65621,-173,73.5,-89,1.34229,-0.473145,-0.418945,6,-1,1,-1,19,-36,10,5,20356
-2.25245,0.317053,0.638897,-97.6875,59.3125,-33.375,0.55957,-0.72998,-0.429199,-2,-2,-3,-5,-18,6,-9,2,20374
-2.25834,0.287912,0.630513,-12.125,43.625,-15.9375,0.394531,-0.692871,-0.515137,-10,-2,-4,-9,-34,-9,-20,-1,20391
-2.24885,0.28256,0.629974,37.375,-3.0625,1.5,0.0483398,-0.507324,-0.597656,-5,0,1,1,6,26,1,11,20409
-2.24885,0.28256,0.629974,37.375,-3.0625,1.5,0.0483398,-0.507324,-0.597656,2,1,0,-2,10,-2,4,3,20426
-2.23094,0.318561,0.637961,29.75,-47.75,33.0625,-0.427734,-0.54834,-0.701172,3,0,3,1,-3,8,9,21,20443
-2.23094,0.318561,0.637961,29.75,-47.75,33.0625,-0.427734,-0.54834,-0.701172,5,-4,-4,-2,1,3,8,-2,20460
-2.22681,0.335488,0.638092,24.9375,-34.0625,36.125,-0.334961,-0.678711,-0.770996,-4,-1,-1,9,5,5,-14,-9,20477
-2.22444,0.338875,0.631886,30.9375,-15.5625,36.9375,0.0708008,-0.660645,-0.85498,5,-7,-4,-13,-8,13,33,-11,20494
-2.17236,0.411905,0.611728,58.75,-90.6875,109.375,2.24951,-0.964844,-0.404297,7,-3,-7,-1,6,6,9,-1,20575
-2.14212,0.496822,0.617855,79.25,-147.688,194.125,2.76855,-0.875,-0.147949,-3,-6,-4,-4,15,12,-6,8,20592
-2.08265,0.594293,0.641553,134.875,-194.125,209.313,3.30664,-0.923828,0.146973,-4,-5,0,-6,-4,0,15,2,20609
-1.9893,0.69451,0.677772,205,-203.313,219.75,2.83643,-0.930176,0.36377,5,7,2,-1,-2,-1,1,3,20626
-1.90109,0.789973,0.721674,168.063,-186.25,220.813,2.50098,-0.767578,0.224121,3,17,8,6,-13,-16,1,6,20643
-1.90109,0.789973,0.721674,168.063,-186.25,220.813,2.50098,-0.767578,0.224121,8,-5,-3,2,2,-19,5,-6,20660
-1.82903,0.870723,0.767794,108.313,-152.75,195.563,2.17188,-0.198242,0.283691,-6,-2,-2,-1,-14,-19,-6,-4,20677
-1.77837,0.942739,0.818557,31.25,-134.75,179.688,1.93555,0.236816,0.143555,0,1,1,-1,-9,4,4,-5,20694
-1.72743,1.00233,0.880356,-1.3125,-128.938,159.813,1.4585,0.225586,0.147949,-5,-2,2,-5,8,30,-1,-4,20711
-1.66143,1.05388,0.956827,-0.5625,-128.375,137.688,0.888672,0.154297,0.195801,1,0,-1,-3,-13,-14,-7,-4,20729
-1.57779,1.09147,1.04055,27.3125,-117.625,104.125,0.671387,0.208984,0.157227,-1,-3,-4,-2,-20,-4,-6,-2,20745
-1.48642,1.11912,1.12514,42.75,-102.563,81.375,0.5,0.393066,0.183594,1,-6,-1,-1,-1,-5,3,3,20762
-1.48642,1.11912,1.12514,42.75,-102.563,81.375,0.5,0.393066,0.183594,1,-7,-3,-3,-4,-1,-2,-7,20780
-1.37714,1.14767,1.22123,53.8125,-85,64.1875,0.23877,0.627441,0.28418,2,3,0,1,2,3,0,1,20797
-1.26694,1.17178,1.31701,46.5,-61.25,36.8125,-0.0874023,0.865723,0.452637,-1,-1,-1,-4,1,4,-9,3,20815
-1.18776,1.18856,1.39027,9.75,-27,-0.9375,-0.268066,1.05029,0.538574,3,-7,-3,-7,-6,-3,7,-4,20832
-1.60081,1.03126,1.05955,-116.063,181.5,-214.5,1.59131,0.402344,-0.0263672,-14,-6,-13,0,13,-8,-68,11,20918
-1.60081,1.03126,1.05955,-116.063,181.5,-214.5,1.59131,0.402344,-0.0263672,6,2,-2,-2,-14,-6,-1,-14,20935
-1.76422,0.933751,0.935063,-171.063,228.063,-255.563,2.88867,-0.349609,-0.265625,-16,-8,-11,3,0,-5,-18,-3,20952
-1.90171,0.828629,0.838046,-179.563,249.188,-245.313,3.31104,-0.827637,-0.149902,3,-3,-4,-4,-10,-7,-12,-6,20968
-1.99199,0.729121,0.76107,-103.625,250.875,-207.375,3.87256,-0.998535,-0.291992,13,-1,-4,1,-2,1,36,19,20986
-2.03322,0.638251,0.708673,-23.3125,216.5,-185.75,3.29102,-1.04248,-0.493164,-4,1,1,3,11,7,-8,2,21004
-2.03322,0.638251,0.708673,-23.3125,216.5,-185.75,3.29102,-1.04248,-0.493164,1,2,4,-2,2,-3,9,-6,21020
-2.0459,0.566069,0.68347,4.875,146.938,-157.625,2.5376,-0.665039,-0.529297,-6,-2,2,-6,-5,8,6,1,21037
-2.07595,0.507514,0.678247,-78.375,90.1875,-142.063,2.04883,-0.128906,-0.377441,-4,0,3,-2,-13,9,2,-4,21055
-2.13324,0.460431,0.680981,-168.125,62.75,-119.813,1.61523,-0.223145,-0.443848,2,0,2,0,-7,4,-9,3,21072
-2.19565,0.411391,0.674907,-172.813,78.625,-87.5625,1.12598,-0.749512,-0.438477,-1,-3,1,0,-2,-2,7,-5,21089
-2.24128,0.374328,0.666802,-125.313,72.375,-57.5625,0.71582,-0.797363,-0.356445,2,-2,2,0,-1,-7,-3,4,21105
-2.26278,0.333406,0.660409,-60,55.75,-39.125,0.490723,-0.696777,-0.475586,0,-3,-1,-3,-1,-8,5,-12,21122
-2.26278,0.333406,0.660409,-60,55.75,-39.125,0.490723,-0.696777,-0.475586,0,-1,-1,0,4,-2,4,-2,21139
-2.26855,0.317716,0.659858,-14.6875,12.0625,-13,0.154785,-0.578613,-0.514648,6,-2,-1,1,2,2,-1,-2,21158
-2.26961,0.322201,0.662903,1,-22.1875,9.875,-0.0927734,-0.458496,-0.521484,1,0,0,0,-5,-2,-5,-8,21175
-2.23179,0.416507,0.639296,104.75,-52.9375,109.5,0.0961914,-0.614746,-0.645996,-5,-2,-1,1,-4,-8,-14,8,21279
-2.23179,0.416507,0.639296,104.75,-52.9375,109.5,0.0961914,-0.614746,-0.645996,-15,-7,-16,7,20,-1,-39,10,21296
-2.20767,0.427739,0.636662,69.75,-64.625,98.625,0.923828,-0.769043,-0.524414,8,-5,-6,2,4,-2,3,-14,21314
-2.18004,0.469248,0.640384,74.6875,-77.3125,90.8125,2.604,-0.884277,-0.342285,8,0,-5,-6,-8,-5,1,-3,21332
-2.13976,0.545642,0.644566,109.25,-130.625,176.313,2.7041,-0.991211,-0.233398,-5,-1,-7,9,13,5,-8,6,21349
-2.06791,0.637902,0.670907,164.313,-188.188,195.875,2.97559,-1.16748,0.0209961,-19,-2,-4,-3,-15,-5,-17,2,21367
-1.98612,0.729629,0.701242,179.063,-176.563,206.563,2.67871,-1.01465,0.0546875,2,4,5,-8,6,12,16,-6,21384
-1.94477,0.806796,0.727451,66.625,-134.75,183.313,2.21777,-0.581055,0.0244141,4,0,1,2,0,2,12,3,21400
-1.94477,0.806796,0.727451,66.625,-134.75,183.313,2.21777,-0.581055,0.0244141,2,0,-1,1,-10,-3,13,1,21417
-1.91373,0.867041,0.749672,41.125,-100.625,146.563,2.00391,-0.598633,0.0625,3,-2,3,-4,-10,-6,9,-8,21434
-1.87529,0.922034,0.778471,45.875,-99.25,133.063,2.00293,-0.410156,-0.0166016,-5,-4,-2,-1,2,-3,-4,0,21451
-1.82783,0.974503,0.816798,46.625,-103.125,126.625,1.7168,-0.0698242,-0.0136719,-1,1,1,-2,-8,0,-5,-2,21468
-1.76107,1.02342,0.872764,56.0625,-117.813,128,1.36914,0.074707,0.0380859,3,1,1,1,0,2,6,12,21485
-1.66936,1.0694,0.947828,75.4375,-124.688,119.625,0.952637,0.20459,0.109863,-2,0,1,-2,11,1,0,1,21502
-1.66936,1.0694,0.947828,75.4375,-124.688,119.625,0.952637,0.20459,0.109863,0,-2,-1,-2,-1,-3,0,-3,21520
-1.55951,1.10695,1.03429,94.8125,-116.875,101.5,0.645508,0.347656,0.165527,0,-2,-1,-2,-1,-3,0,-3,21537
-1.1148,1.19221,1.42798,-0.25,-37.125,16.125,-0.202637,0.822266,0.601563,0,4,-5,-3,3,3,-3,-3,21611
-1.07237,1.19651,1.4849,-53.1875,-11.9375,-18.6875,-0.304688,0.779297,0.620117,-2,5,-2,0,-7,-5,-9,0,21628
-1.0934,1.19252,1.49134,-97.25,19.8125,-52.875,-0.0810547,0.688965,0.51416,13,-16,-4,1,1,-2,7,-5,21645
-1.19624,1.17948,1.42398,-119.313,57.625,-75,0.241211,0.748535,0.429199,-8,-10,-3,-13,-8,3,18,-2,21662
-1.19624,1.17948,1.42398,-119.313,57.625,-75,0.241211,0.748535,0.429199,-16,7,-2,13,7,-1,-28,16,21679
-1.33201,1.15715,1.31815,-113.5,100.25,-106.188,0.416504,0.76123,0.358887,-11,1,-2,4,-8,-6,-9,3,21696
-1.49786,1.11272,1.18481,-130.375,140.625,-151.375,0.997559,0.581055,0.0336914,-14,-5,-10,-4,-20,-13,-25,-4,21713
-1.68555,1.03486,1.04927,-195.75,189.75,-219.125,2.95215,0.0629883,-0.359863,5,19,-16,-2,-9,6,-15,-4,21730
-1.68555,1.03486,1.04927,-195.75,189.75,-219.125,2.95215,0.0629883,-0.359863,-8,-8,0,0,-10,-12,16,-29,21748
-1.97641,0.821747,0.844055,-154.563,243.75,-238.5,3.80273,-1.16113,-0.612305,7,-1,-3,-8,-6,5,23,10,21765
-2.0319,0.725269,0.794674,-60,207.938,-208.688,3.26514,-1.03906,-0.735352,-4,5,12,9,-1,-5,2,2,21782
-2.0319,0.725269,0.794674,-60,207.938,-208.688,3.26514,-1.03906,-0.735352,2,2,5,3,10,0,-12,4,21800
-2.06105,0.585577,0.768091,-43.125,94.25,-145.313,2.28613,-0.0800781,-0.477539,3,2,2,-5,-11,-5,8,-1,21817
-2.06105,0.585577,0.768091,-43.125,94.25,-145.313,2.28613,-0.0800781,-0.477539,-7,0,4,-4,-5,4,4,-11,21835
-2.10675,0.529473,0.764663,-125.875,85.875,-136,1.87207,-0.03125,-0.600098,0,0,1,0,2,2,-7,8,21852
-2.18673,0.478283,0.75928,-221.875,91.4375,-115.813,1.45752,-0.598633,-0.552246,0,-3,0,0,-4,-5,4,8,21868
-2.28468,0.384013,0.746635,-93.625,56.8125,-47.1875,0.501465,-0.886719,-0.498047,1,-2,1,3,0,-8,-4,-3,21914
-2.28547,0.364041,0.747479,-10,19.1875,-21.125,0.103027,-0.726563,-0.490234,1,-3,-2,-2,-6,-4,3,-4,21930
-2.27652,0.364872,0.748896,32.4375,-10.0625,0.9375,-0.196289,-0.465332,-0.56543,1,1,1,-1,1,1,9,-5,21947
-2.27652,0.364872,0.748896,32.4375,-10.0625,0.9375,-0.196289,-0.465332,-0.56543,3,0,-4,-3,-3,-4,19,5,21964
-2.26732,0.389818,0.747175,27,-25.25,32.625,-0.376953,-0.55127,-0.819824,-1,-2,-3,-3,-13,2,10,6,21981
-2.26732,0.389818,0.747175,27,-25.25,32.625,-0.376953,-0.55127,-0.819824,0,-3,-5,-5,-2,-5,2,2,21998
-2.27051,0.39601,0.733867,25.25,-3.25,45.6875,-0.191895,-0.700684,-0.98584,-4,0,-5,3,-2,-4,-11,0,22015
-2.27377,0.40154,0.716465,34.375,-8.3125,65.375,0.136719,-0.621582,-1.01074,-1,-1,7,3,0,-1,5,-5,22032
-2.26243,0.418858,0.701827,67.875,-37.625,92.0625,0.265625,-0.582031,-0.852051,-22,3,0,12,6,-6,-47,9,22049
-2.23888,0.455476,0.686304,87.125,-45,118.938,0.512695,-0.777832,-0.681641,12,1,3,-3,-2,2,7,-5,22065
-2.21554,0.498569,0.675813,80.6875,-54.1875,114.25,1.44629,-0.938477,-0.542969,-23,-3,-6,1,-12,-9,-40,3,22082
-2.21554,0.498569,0.675813,80.6875,-54.1875,114.25,1.44629,-0.938477,-0.542969,-8,0,-12,10,-10,-12,-25,0,22099
-2.17588,0.562077,0.667509,125.375,-90.1875,159.75,2.55908,-1.1123,-0.427246,-10,-2,-8,17,18,2,-22,16,22116
-2.11355,0.648876,0.674737,166.688,-149.313,199.563,2.94385,-1.15723,-0.190918,-1,4,5,3,4,8,0,-2,22133
-2.04614,0.742386,0.692527,160.438,-165,215.125,3.13428,-0.912598,0.0454102,-1,0,6,-7,-7,5,6,1,22150
-1.98403,0.828673,0.712456,137.813,-142.75,206,2.63428,-0.997559,0.0249023,6,14,0,-1,11,12,-16,16,22167
-1.89492,0.96835,0.753581,84.6875,-101.125,160.563,1.80225,-0.434082,0.138184,-1,0,-3,-2,-11,-2,-1,-6,22227
-1.89492,0.96835,0.753581,84.6875,-101.125,160.563,1.80225,-0.434082,0.138184,-1,0,-3,-2,-11,-2,-1,-6,22244
-1.72004,1.13021,0.886536,50.4375,-101.25,131.25,0.789063,0.175293,0.155762,-2,-1,1,2,5,3,0,1,22261
-1.72004,1.13021,0.886536,50.4375,-101.25,131.25,0.789063,0.175293,0.155762,-2,-2,-2,-2,1,-9,-1,0,22278
-1.62098,1.17116,0.968956,66.6875,-105.438,106,0.418945,0.255859,0.149902,-2,1,1,-5,2,-7,-2,-3,22295
-1.5029,1.20415,1.06975,65.4375,-93.8125,74.875,0.248535,0.414551,0.202148,4,4,-2,-2,-7,0,0,-6,22312
-1.36894,1.23244,1.18631,60.1875,-79.5,51,0.050293,0.704102,0.358398,0,-1,-2,-1,-6,-2,-3,-3,22329
-1.24106,1.25196,1.29759,49,-54.75,20.5,-0.119141,0.894043,0.464844,-11,-16,-3,-2,0,0,6,1,22346
-1.24106,1.25196,1.29759,49,-54.75,20.5,-0.119141,0.894043,0.464844,-19,-28,-9,-3,-6,-1,-6,-6,22363
-1.11581,1.25999,1.4146,-17.6875,-2.5625,-69.6875,-0.188477,1.17773,0.404785,15,28,4,0,-4,-11,-5,1,22382
-1.11581,1.25999,1.4146,-17.6875,-2.5625,-69.6875,-0.188477,1.17773,0.404785,1,-28,-2,-13,-3,7,8,4,22399
-1.18209,1.22803,1.35741,-39.0625,17.375,-118.625,0.012207,0.853516,0.435547,7,-21,-4,3,3,-6,-20,2,22416
-1.29644,1.1829,1.27316,-104.75,44.5625,-160.563,0.272461,0.73291,0.285156,0,-20,-7,13,7,-10,-20,-3,22433
-1.42539,1.12462,1.17508,-115.188,80.8125,-193.563,0.548828,0.700684,0.237793,1,-17,0,-1,2,-2,9,-10,22450
-1.55894,1.04379,1.07501,-129.688,115.438,-241.375,1.54736,0.388184,-0.0810547,28,27,0,1,-1,1,5,-9,22467
-1.68322,0.954285,0.981229,-129.563,158.125,-248.688,3.39307,-0.0761719,-0.237305,0,-8,-12,-15,-12,-6,-14,-5,22484
-1.92957,0.640183,0.791016,-78.8125,202.313,-233.188,3.65674,-0.679688,-0.561523,7,5,9,-2,-6,1,31,-3,22551
-1.96118,0.55479,0.77405,-63.1875,126.813,-213.063,2.86426,-0.814941,-0.475586,-10,1,6,1,19,-4,-8,1,22568
-2.00486,0.490202,0.770777,-120.875,81.4375,-166.438,1.93311,-0.282715,-0.383789,4,1,9,2,4,-11,0,-2,22585
-2.00486,0.490202,0.770777,-120.875,81.4375,-166.438,1.93311,-0.282715,-0.383789,-5,1,0,-5,-8,3,-2,-3,22602
-2.07358,0.43151,0.778899,-204.625,45.5,-138.5,1.30566,-0.386719,-0.397461,2,-4,-1,2,0,-3,-10,-4,22619
-2.15035,0.388308,0.772486,-214.188,68.5625,-80.375,0.882324,-0.771973,-0.405762,-3,-4,-2,-4,6,-6,-9,-4,22636
-2.20495,0.353868,0.758947,-145.25,78.8125,-47.875,0.600586,-0.779297,-0.316406,3,-6,-3,-4,-2,0,7,4,22653
-2.2323,0.318016,0.747638,-67.75,60.1875,-28.875,0.393555,-0.624023,-0.483887,1,-2,0,-1,-5,-8,20,13,22670
-2.24637,0.303807,0.739825,-21.375,22.4375,-0.5,0.17334,-0.438965,-0.583008,0,1,-1,-2,-9,-4,-10,-8,22687
-2.26186,0.308293,0.737508,-25.25,-13,17.625,-0.0756836,-0.345703,-0.618164,-6,0,-4,-5,-9,0,-24,9,22704
-2.26186,0.308293,0.737508,-25.25,-13,17.625,-0.0756836,-0.345703,-0.618164,-4,-4,0,1,10,4,-8,-2,22721
-2.27567,0.323046,0.737682,-23.5,-32.8125,30.125,-0.242676,-0.458008,-0.708984,0,-1,-2,-4,-7,-5,6,-7,22738
-2.28504,0.340368,0.734977,-13.4375,-33,43.5625,-0.274902,-0.635254,-0.774414,-8,1,-3,1,1,6,1,1,22755
-2.28896,0.353574,0.725321,8.5,-18.75,55.3125,-0.158691,-0.72168,-0.834473,7,0,-3,-7,-9,8,9,-4,22773
-2.2784,0.36551,0.716116,54,-31,65.125,0.107422,-0.722656,-0.904297,-1,-3,-1,3,3,0,-2,-3,22790
-2.25172,0.385909,0.71011,99,-59.5625,86.5625,0.256836,-0.706543,-0.888672,-13,6,-7,8,13,2,-21,9,22807
-2.07363,0.625051,0.703944,172.563,-147.625,187.063,3.00098,-0.851074,-0.185059,-6,-15,2,-5,-10,-3,25,-16,22892
-1.98962,0.705374,0.730699,193.563,-156.563,179.375,3.22559,-0.666016,-0.21582,2,9,10,-8,-5,1,6,-6,22909
-1.93558,0.771976,0.760375,97.5625,-130.938,152.313,2.58545,-0.336914,-0.129883,-6,-2,-3,-2,-4,-3,-5,6,22926
-1.87579,0.827075,0.799195,91.1875,-125.313,123.813,2.17432,-0.556641,0.0961914,4,1,3,5,-3,-13,-2,-3,22943
-1.87579,0.827075,0.799195,91.1875,-125.313,123.813,2.17432,-0.556641,0.0961914,0,-3,1,2,-4,2,8,0,22960
-1.80112,0.872606,0.845709,114.375,-119.063,102.25,2.07129,-0.380859,0.00244141,2,-3,1,3,9,5,1,-5,22977
-1.72892,0.910506,0.894006,99.375,-106.25,89.5625,1.73193,0.000488281,0.0922852,4,7,1,2,-5,3,-1,1,22994
-1.65319,0.94049,0.948304,90.6875,-103.188,86.25,1.36279,0.134277,0.116211,-4,-1,0,0,-7,0,-3,-10,23011
-1.57096,0.96774,1.01155,87.0625,-106.25,79.25,1.01123,0.265137,0.122559,0,2,2,0,-21,-12,-3,-3,23028
-1.48515,0.990854,1.08243,74.875,-108,73.375,0.773926,0.368164,0.137207,1,-1,0,-1,-2,0,1,3,23046
-1.40067,1.01081,1.1599,53.0625,-108.188,70.0625,0.495117,0.423828,0.181641,4,-4,-2,-3,0,0,0,-1,23064
-1.40067,1.01081,1.1599,53.0625,-108.188,70.0625,0.495117,0.423828,0.181641,1,2,-2,-2,3,-1,0,-2,23081
-1.32018,1.02546,1.23811,36.75,-101.688,60.5,0.270996,0.486328,0.25293,-4,-9,-4,-2,-7,-15,-5,-1,23098
-1.22622,1.03819,1.32564,34.6875,-88.375,44.0625,0.0268555,0.500488,0.404785,2,-19,-3,-3,-8,-6,4,-3,23115
-1.12802,1.04637,1.41366,37.125,-74.25,32.4375,-0.233398,0.508301,0.629883,7,5,2,-2,1,0,3,2,23132
-1.05085,1.05709,1.47855,25.625,-31.1875,14.8125,-0.320313,0.767578,0.692871,-3,-10,-5,-6,-3,4,6,-5,23148
-1.05747,1.07389,1.47141,-56.0625,65.875,-65.5,-0.0532227,0.980957,0.445313,-8,10,-2,-1,-7,-4,-22,4,23210
-1.34314,1.02018,1.24723,-154,142.25,-154.313,1.13965,0.503906,-0.0214844,-8,3,-6,-12,-3,6,4,4,23227
-1.52119,0.955414,1.10639,-173.5,194.25,-214.125,3.40674,0.212891,-0.316895,-6,-8,-14,-1,-3,0,-22,-6,23245
-1.52119,0.955414,1.10639,-173.5,194.25,-214.125,3.40674,0.212891,-0.316895,12,-16,-2,-1,-7,-6,5,-10,23263
-1.80423,0.788961,0.890923,-149.813,206.875,-200.25,3.36865,-0.909668,-0.0429688,-3,4,-1,0,-11,-9,7,6,23279
-1.80423,0.788961,0.890923,-149.813,206.875,-200.25,3.36865,-0.909668,-0.0429688,2,9,0,3,7,-2,-4,1,23296
-1.88413,0.710162,0.824231,-98.4375,196.063,-179.875,3.01025,-0.686523,-0.318359,-1,1,2,2,5,1,-3,-1,23313
-1.94348,0.63941,0.774291,-80.5625,173.375,-153.188,2.56445,-0.475586,-0.230469,1,3,0,-3,10,8,25,-6,23331
-1.99893,0.577994,0.73695,-97.9375,149.5,-127.938,2.22168,-0.13916,-0.273926,10,-1,1,-1,-5,-4,23,3,23347
-2.06238,0.522783,0.712958,-145.75,122.75,-115.813,1.9873,-0.0405273,-0.470703,-5,2,1,-2,3,4,-3,1,23364
-2.06238,0.522783,0.712958,-145.75,122.75,-115.813,1.9873,-0.0405273,-0.470703,-4,1,4,0,-3,8,7,-11,23381
-2.13067,0.479972,0.699981,-177.5,89.875,-89.9375,1.43408,-0.309082,-0.656738,4,1,3,6,11,-8,-16,-6,23398
-2.18369,0.443541,0.693124,-140.688,58.9375,-60.125,0.933594,-0.665527,-0.687012,-4,-1,0,-2,-8,-11,-4,-4,23415
-2.21508,0.406636,0.690591,-78.5625,30.25,-37.25,0.441406,-0.771484,-0.742676,-1,-1,1,1,-2,-8,11,-3,23433
-2.22863,0.389651,0.690845,-21.8125,5.0625,-19.4375,0.112305,-0.509277,-0.736816,-3,-2,1,1,5,1,-9,-6,23450
-2.2333,0.3844,0.692198,10.625,-10.625,-9,-0.0498047,-0.300293,-0.730469,-1,-3,-1,-5,-5,-4,-4,-1,23468
-2.25065,0.41802,0.711114,-13.375,-51.3125,42.25,-0.236816,-0.788086,-0.790039,7,5,-3,-9,-1,-3,-1,3,23540
-2.24881,0.42467,0.707173,14.25,-34.8125,57.1875,0.236816,-0.82666,-0.746582,2,-13,2,-2,4,2,25,0,23558
-2.22789,0.432583,0.70081,70.375,-38.125,72.8125,0.436523,-0.794434,-0.67041,13,6,6,11,3,-2,4,-6,23575
-2.19518,0.469386,0.693328,101.75,-58.125,110.75,0.604004,-0.962891,-0.57959,-12,-4,-9,1,-6,-9,-9,-3,23593
-2.16023,0.520727,0.690681,103.438,-78.3125,124.938,1.55225,-1.06396,-0.413574,9,4,0,-9,5,1,-7,-1,23609
-2.11339,0.591303,0.688186,138.188,-103.375,173.75,2.50537,-0.887695,-0.254395,-6,-8,0,-4,-11,-14,-5,-4,23626
-2.05876,0.678626,0.697878,139.688,-142.938,206.875,2.81055,-0.905273,-0.0834961,-8,-6,-7,-3,5,1,6,-2,23643
-2.05876,0.678626,0.697878,139.688,-142.938,206.875,2.81055,-0.905273,-0.0834961,-6,-7,-1,1,-6,-7,-7,-3,23660
-2.00264,0.769733,0.711884,134.313,-143.125,220.625,2.84082,-0.807617,-0.0112305,15,6,2,6,13,-1,30,1,23677
-1.97146,0.852146,0.723893,64.5,-117.063,206.625,2.17627,-0.674316,-0.0185547,5,0,-2,1,-3,-5,-9,-2,23695
-1.93972,0.922248,0.74327,48.25,-107.938,172.875,2.00537,-0.598145,0.112305,-1,0,-2,-1,5,14,-9,4,23711
-1.88945,0.979841,0.776695,65.25,-108.313,136.75,2.0415,-0.458984,0.0644531,-3,0,1,-3,-11,5,7,0,23728
-1.82497,1.02947,0.824746,69.0625,-110.813,115.25,1.81006,-0.103027,-0.0112305,4,2,1,1,-9,-7,5,-3,23746
-1.7481,1.06705,0.888519,60.375,-112.938,95.9375,1.35156,0.0517578,0.0947266,-5,0,2,-2,2,11,4,2,23764
-1.65366,1.09745,0.968368,67.125,-116.063,76.625,0.861328,0.17334,0.166992,-4,-1,-1,-2,-6,-4,-2,3,23782
-1.65366,1.09745,0.968368,67.125,-116.063,76.625,0.861328,0.17334,0.166992,2,4,1,3,-1,-7,0,-6,23797
-1.28625,1.14197,1.25825,90.5,-85,25.6875,-0.00878906,0.622559,0.43457,0,3,-1,-1,-1,0,-14,2,23852
