roll,pitch,yaw, gyro_x, gyro_y, gyro_z, accel_x, accel_y, accel_z, EMG0, EMG1, EMG2, EMG3, EMG4, EMG5, EMG6, EMG7, time
0,0,0,0,0,0,0,0,0,0,0,0,0,0,0,0,0,382
0.538062,-0.821014,2.04773,68.0625,-39,59.25,-0.557129,-0.102051,0.299805,0,0,0,0,0,0,0,0,400
0.528307,-0.821194,2.07265,38.625,-14.8125,46.875,-0.678711,-0.216797,0.236328,0,0,0,0,0,0,0,0,417
0.503003,-0.805491,2.09822,5.75,7.6875,23,-0.882813,-0.375977,0.407715,0,0,0,0,0,0,0,0,435
0.491601,-0.791048,2.10467,-10.0625,12.125,-2.8125,-0.758789,-0.239258,-0.03125,0,0,0,0,0,0,0,0,452
0.475831,-0.767714,2.1085,-20.5625,32.5,-26.875,-0.177246,-0.145508,0.467773,0,0,0,0,0,0,0,0,469
0.4597,-0.71605,2.10286,-40.875,62.9375,-62.5,-0.916016,-0.129395,0.47998,0,0,0,0,0,0,0,0,486
0.4597,-0.71605,2.10286,-40.875,62.9375,-62.5,-0.916016,-0.129395,0.47998,0,0,0,0,0,0,0,0,503
0.45752,-0.663489,2.07963,-48.5625,82.25,-97.625,-0.0795898,0.296387,0.615234,0,0,0,0,0,0,0,0,519
0.456019,-0.602663,2.05451,-46,108.125,-118.438,-0.568359,0.668457,1.5459,0,0,0,0,0,0,0,0,536
0.456019,-0.602663,2.05451,-46,108.125,-118.438,-0.568359,0.668457,1.5459,0,0,0,0,0,0,0,0,553
0.453149,-0.553302,2.0305,-45.875,101.938,-114.25,0.767578,1.84082,2.28223,0,0,0,0,0,0,0,0,570
0.453149,-0.553302,2.0305,-45.875,101.938,-114.25,0.767578,1.84082,2.28223,-3,-4,-17,1,-9,-5,-22,-8,587
0.428456,-0.508284,2.00999,-100.563,94.875,-100.625,1.00488,1.61182,2.521,-6,-17,2,-128,-21,-7,7,-4,605
0.388762,-0.448301,1.9839,-148,131.375,-129.375,2.5752,1.46875,2.51563,-4,-9,-31,-8,0,-5,29,-5,623
0.373584,-0.376139,1.93536,-105.063,145,-193.188,0.820313,1.10498,1.86768,7,3,8,1,-8,-4,36,-1,641
0.320696,-0.237764,1.85221,-129.938,149.938,-168.813,1.01172,1.31104,1.51709,-1,3,0,6,-1,3,-7,-3,691
0.286967,-0.177751,1.82091,-126.063,149.188,-136,0.897461,1.04199,1.18701,-3,-6,10,-12,-3,0,-5,1,709
0.286967,-0.177751,1.82091,-126.063,149.188,-136,0.897461,1.04199,1.18701,6,4,2,7,-4,-3,4,-1,725
0.261959,-0.127752,1.79336,-91.1875,128.813,-116.25,0.825195,0.66748,0.817871,-2,4,1,-14,-3,-14,25,-2,743
0.24017,-0.047257,1.73519,-35.75,93,-106.5,0.529297,0.353516,0.16748,-7,-1,1,-19,-1,-6,-27,0,761
0.24017,-0.047257,1.73519,-35.75,93,-106.5,0.529297,0.353516,0.16748,-2,8,5,-13,-2,0,-13,3,778
0.236184,-0.0237242,1.71037,-29.375,81.8125,-92.125,0.489746,0.226074,-0.0458984,0,2,-2,-7,0,-2,-1,0,794
0.231305,-0.00319245,1.69186,-26,77.1875,-72.875,0.48291,0.115723,-0.231445,0,-12,1,1,-1,3,-12,1,811
0.229194,0.0129314,1.68148,-15.6875,74.5625,-48,0.555176,0.0551758,-0.422363,0,-12,1,1,-1,3,-12,1,827
0.233479,0.0253688,1.67739,0.5,72.75,-29.75,0.631348,0.0517578,-0.540039,-6,-3,1,-2,-2,0,1,1,844
0.243071,0.0338716,1.67704,14.1875,66.625,-17.3125,0.671875,0.0698242,-0.54248,-5,-3,0,-4,0,2,18,-1,860
0.243071,0.0338716,1.67704,14.1875,66.625,-17.3125,0.671875,0.0698242,-0.54248,-9,8,-3,-9,-2,1,11,-2,877
0.265348,0.0259802,1.69642,4.6875,19.5625,36,0.58252,0.353516,-0.25293,9,-13,-6,-7,-2,3,1,1,894
0.265348,0.0259802,1.69642,4.6875,19.5625,36,0.58252,0.353516,-0.25293,1,5,-12,-4,0,-4,3,-5,912
0.271785,-0.000444353,1.72464,-6.4375,-19.5,88.8125,0.490723,0.348145,-0.0180664,-8,-16,5,2,1,-4,26,-5,930
0.271785,-0.000444353,1.72464,-6.4375,-19.5,88.8125,0.490723,0.348145,-0.0180664,-5,-12,-24,-5,1,-6,-59,-7,948
0.32438,-0.256141,1.88697,151.813,-185.125,165.375,0.770996,0.84668,2.31982,9,7,30,17,-7,-3,82,2,1014
0.364477,-0.340103,1.92243,144.813,-193.938,172.75,0.821777,1.46631,2.31836,-17,-13,-25,-16,2,-3,8,6,1032
0.385726,-0.419224,1.956,97.75,-182.188,167.25,0.803711,0.817871,2.21338,-11,6,20,5,-6,-7,13,-1,1050
0.409081,-0.485398,1.98125,99.4375,-154.625,134.938,0.76123,0.777344,1.93408,-6,-7,-6,29,-6,-3,59,2,1067
0.409081,-0.485398,1.98125,99.4375,-154.625,134.938,0.76123,0.777344,1.93408,4,6,-3,-7,-7,-12,49,-4,1084
0.424448,-0.542167,2.00028,68.75,-139.063,114.625,0.427734,0.918945,1.69824,0,2,-1,1,8,-2,0,-4,1101
0.429801,-0.595329,2.02016,45.875,-133.188,113.688,0.0268555,0.714844,1.50439,-6,-1,-8,3,-3,-8,-38,0,1118
0.435315,-0.646731,2.04038,49.4375,-130.063,112,-0.253418,0.589844,1.23096,0,-5,-4,-11,1,-4,-61,-1,1135
0.4416,-0.697335,2.06094,55.375,-125.875,109.188,-0.307129,0.391602,0.94043,-1,0,7,-3,10,10,-48,-2,1152
0.4416,-0.697335,2.06094,55.375,-125.875,109.188,-0.307129,0.391602,0.94043,3,5,0,-8,-5,-1,1,2,1170
0.451044,-0.744145,2.08086,66.5,-114.438,99.9375,-0.304199,0.187012,0.725098,-3,4,-2,1,-2,1,11,0,1187
0.457987,-0.77386,2.10342,74.625,-96.5,88.8125,-0.34375,0.0439453,0.532715,-2,-3,-2,5,4,1,11,1,1204
0.461399,-0.796562,2.12346,57.9375,-81.4375,77.1875,-0.508789,0.0244141,0.388672,-8,-8,-1,-7,-21,-8,-25,-2,1221
0.453584,-0.812627,2.14292,29.8125,-65.8125,61.0625,-0.637695,-0.137695,0.296875,-4,-8,-3,2,8,-4,-9,0,1238
0.433349,-0.816749,2.15903,-4.1875,-38.8125,29.5,-0.705078,-0.36084,0.248535,-1,2,1,5,8,-1,2,2,1255
0.407737,-0.80402,2.16598,-34.3125,-7,-9.25,-0.790039,-0.458984,0.233398,7,-6,-1,-5,0,-9,4,4,1272
0.380179,-0.697965,2.10945,-58.375,50.25,-91.5625,-0.572754,0.108887,0.429199,0,2,38,0,1,-6,-13,6,1331
0.378554,-0.656876,2.07505,-66.5625,64.5625,-107.938,-0.435059,0.416504,1.01221,-8,8,-7,-41,8,6,-2,3,1348
0.378554,-0.656876,2.07505,-66.5625,64.5625,-107.938,-0.435059,0.416504,1.01221,-7,14,71,-35,3,4,-70,-2,1365
0.387591,-0.619455,2.04152,-31.8125,70.75,-112.125,-0.161621,1.36035,1.84863,-26,-12,46,-33,-3,-3,4,-9,1383
0.386367,-0.579026,2.00647,-59.75,75.9375,-120.063,1.16992,1.89258,2.52734,-7,-9,-21,36,-4,0,-13,-5,1400
0.34503,-0.526496,1.98067,-157.563,118.188,-113.188,2.0625,1.99561,2.50879,1,1,-23,-12,-1,2,4,-1,1417
0.309367,-0.462338,1.93605,-162.938,137.875,-165.563,1.84766,1.34717,2.05664,15,8,3,87,2,-4,24,0,1435
0.286032,-0.387064,1.88676,-125,168.375,-186.25,1.33496,1.26318,1.81201,10,-4,-24,29,-2,-3,33,-1,1452
0.286032,-0.387064,1.88676,-125,168.375,-186.25,1.33496,1.26318,1.81201,2,-3,-22,28,-2,9,11,-1,1468
0.264257,-0.316065,1.83738,-123.125,170.125,-181.688,1.12646,1.16992,1.50146,3,6,7,-4,-1,-1,18,-3,1485
0.219642,-0.193491,1.7497,-93.75,138.875,-145.125,0.677734,0.852051,0.914551,-2,2,-5,25,0,1,-13,-2,1502
0.219642,-0.193491,1.7497,-93.75,138.875,-145.125,0.677734,0.852051,0.914551,0,-1,-1,-16,0,-3,15,4,1519
0.205928,-0.149098,1.71347,-64.8125,112.375,-127.5,0.663574,0.605957,0.572754,-4,-3,-7,-16,4,2,6,-2,1535
0.196983,-0.111608,1.67921,-44.5625,94.125,-117.625,0.512695,0.42627,0.279785,-6,-5,-5,-10,-3,-5,-21,-3,1552
0.196983,-0.111608,1.67921,-44.5625,94.125,-117.625,0.512695,0.42627,0.279785,-4,0,-5,-9,-5,1,3,3,1568
0.195973,-0.0879692,1.65047,-29.0625,79.5625,-97.9375,0.430664,0.268066,-0.00927734,2,-2,11,14,8,6,-1,4,1586
0.199856,-0.0346598,1.59638,-4.6875,69.8125,-48.625,0.450684,0.0649414,-0.519043,-42,-1,-3,-11,-33,-11,40,-9,1642
0.199585,-0.0245955,1.59211,-14.4375,56.5625,-23.625,0.443848,0.0922852,-0.530762,10,-4,-12,-17,3,5,-19,0,1658
0.202976,-0.0290153,1.60189,-7.5,30.0625,22.5,0.54541,0.165527,-0.477539,-13,-11,-10,-1,6,0,-15,-2,1676
0.213253,-0.0506927,1.62178,2.75,1.75,59.125,0.748535,0.36377,-0.302734,1,11,9,13,1,-4,19,-6,1693
0.217703,-0.0843011,1.65183,-13.1875,-19.875,94.625,0.831055,0.438965,-0.0795898,-4,-14,24,18,14,4,33,-3,1711
0.210156,-0.115186,1.69043,-15.375,-49.625,124,0.870605,0.360352,0.423828,-13,-2,-17,-3,7,0,-125,3,1729
0.210156,-0.115186,1.69043,-15.375,-49.625,124,0.870605,0.360352,0.423828,7,17,54,53,11,15,-34,3,1747
0.217364,-0.157025,1.73507,30.5625,-78.0625,147.313,0.921387,0.651855,1.08008,-9,7,10,52,2,-3,-80,2,1763
0.247599,-0.219056,1.78306,100.188,-135.063,173.125,0.844727,1.17285,1.77002,-10,8,0,9,15,-4,-3,3,1781
0.247599,-0.219056,1.78306,100.188,-135.063,173.125,0.844727,1.17285,1.77002,5,-7,-5,-47,-2,-8,63,-1,1797
0.247599,-0.219056,1.78306,100.188,-135.063,173.125,0.844727,1.17285,1.77002,-1,-6,48,61,-3,-1,58,-6,1815
0.342688,-0.440379,1.9093,104.938,-164.5,158.313,0.993164,0.906738,2.37646,12,5,-14,-15,1,-4,-36,-8,1832
0.357244,-0.495088,1.93977,81.4375,-126.625,128.75,0.813477,0.774414,2.12646,8,7,0,-2,-2,-11,-15,3,1849
0.357244,-0.495088,1.93977,81.4375,-126.625,128.75,0.813477,0.774414,2.12646,-3,7,-9,-11,-4,5,109,4,1867
0.359215,-0.590682,1.9913,33.0625,-122.313,114,0.0209961,0.70166,1.52002,10,4,-3,-2,0,2,52,1,1884
0.359215,-0.590682,1.9913,33.0625,-122.313,114,0.0209961,0.70166,1.52002,0,3,12,-9,-4,5,-47,-3,1900
0.362382,-0.74523,2.06599,60.5625,-141,106,-0.400879,0.231445,0.690918,-14,6,-6,-8,5,4,-23,-3,1956
0.376883,-0.795597,2.08621,82.75,-128.375,93.1875,-0.313965,0.0927734,0.425781,1,-3,-13,-10,6,-1,29,1,1973
0.392894,-0.835866,2.10229,80.875,-103.813,74.4375,-0.38916,0.0209961,0.333008,0,-5,1,3,13,4,14,3,1989
0.398829,-0.854707,2.12046,64.0625,-72.4375,57.5625,-0.521973,-0.0727539,0.283203,-1,-4,2,0,14,12,28,8,2006
0.398829,-0.854707,2.12046,64.0625,-72.4375,57.5625,-0.521973,-0.0727539,0.283203,0,2,-7,-11,-19,-1,-22,10,2024
0.388163,-0.860253,2.13858,19.0625,-42.75,41.0625,-0.726563,-0.163086,0.222656,-7,0,1,3,24,5,3,2,2041
0.368828,-0.852606,2.15019,-17.5625,-14.875,13.625,-0.831543,-0.237793,0.16748,-4,1,-1,0,9,17,29,-11,2057
0.350822,-0.831312,2.14846,-41.1875,11.625,-24.9375,-0.82666,-0.271484,0.172852,-21,-14,-6,-7,0,13,29,1,2075
0.33558,-0.795853,2.13143,-67.25,39.3125,-62.875,-0.830078,-0.217773,0.160645,7,1,5,5,-19,-20,1,7,2092
0.33558,-0.795853,2.13143,-67.25,39.3125,-62.875,-0.830078,-0.217773,0.160645,9,9,18,33,-23,1,-1,-10,2109
0.310306,-0.701306,2.08919,-57,78.125,-84.3125,-0.379883,-0.0522461,0.651855,26,-11,59,17,-13,-7,-12,6,2127
0.310306,-0.701306,2.08919,-57,78.125,-84.3125,-0.379883,-0.0522461,0.651855,-19,-3,25,-72,5,8,-20,-10,2144
0.321684,-0.652481,2.05785,-25.25,94.125,-103.125,-0.207031,0.5625,1.38379,59,-21,26,17,-9,-42,-36,-16,2161
0.334529,-0.608416,2.03245,-6.3125,100.438,-96.125,0.151855,1.81738,2.23633,13,-1,-1,-8,-9,4,-8,-7,2177
0.318405,-0.559343,2.00638,-87.1875,113.063,-104.375,1.73633,1.69775,2.78467,-20,-15,-41,16,-8,-4,-72,-4,2194
0.286713,-0.494939,1.97584,-135.063,153.813,-127.5,1.85156,1.57617,2.4541,-11,-1,-3,8,-4,-1,-42,-3,2211
0.229813,-0.276231,1.8533,-120.938,176.313,-149.125,1.0542,0.998047,1.61475,-14,-3,-9,-40,-41,-43,-6,-16,2273
0.20569,-0.217541,1.8198,-101.25,153.875,-127.375,0.87207,0.800293,1.28467,-19,-9,-18,-25,-36,-7,-21,-4,2290
0.184514,-0.171121,1.78587,-86.875,123.125,-120.125,0.812012,0.623047,0.902344,7,6,-5,38,43,37,-15,-4,2307
0.184514,-0.171121,1.78587,-86.875,123.125,-120.125,0.812012,0.623047,0.902344,9,-8,-5,-21,-20,-5,-65,-32,2325
0.161537,-0.132366,1.74633,-89.5625,99,-129.875,0.59082,0.483398,0.537598,-11,-9,-11,-23,-24,-26,-88,7,2341
0.13917,-0.0988448,1.71508,-78.5,89.75,-103.563,0.517578,0.286133,0.293457,-9,-2,4,1,22,-8,115,31,2358
0.126677,-0.0782769,1.68597,-49.625,71.875,-92.75,0.349609,0.0830078,-0.120605,-19,-9,-16,-6,-22,-32,51,-5,2376
0.115622,-0.0645593,1.66028,-38.6875,55.75,-80.6875,0.361816,0.00341797,-0.244629,-2,0,3,3,7,19,52,8,2393
0.117368,-0.059812,1.63896,-8.1875,36.0625,-65.25,0.405762,0.0776367,-0.549805,11,3,-2,8,2,-10,6,-1,2410
0.121888,-0.0685237,1.62189,3.3125,5.1875,-49.375,0.489258,0.0234375,-0.662109,5,-8,-27,-66,-4,-18,25,3,2428
0.121888,-0.0685237,1.62189,3.3125,5.1875,-49.375,0.489258,0.0234375,-0.662109,50,-64,7,97,-2,-13,26,-65,2446
0.121625,-0.0860906,1.60787,-12.8125,-8.875,-38.3125,0.629883,0.0654297,-0.59668,-17,34,15,8,28,6,28,53,2463
0.124267,-0.110194,1.61155,-18.25,-14.625,14.75,0.724609,0.32959,-0.54541,7,13,-5,24,-10,-18,-67,-39,2480
0.136602,-0.144587,1.63529,6,-27.375,76.5,0.871582,0.500977,-0.381348,57,58,30,19,26,25,59,28,2497
0.150252,-0.190854,1.66341,13.8125,-53.75,94.5625,0.968262,0.537598,-0.150879,68,12,9,57,7,-4,-52,20,2514
0.141829,-0.230132,1.70191,-10.3125,-81.75,123.313,0.896973,0.574219,0.244629,102,39,42,-1,-41,16,-103,-73,2532
0.239703,-0.455081,1.86246,172.938,-189.125,189.75,1.56592,1.30127,2.39453,-4,-47,66,123,95,-5,-15,-52,2594
0.270235,-0.53497,1.90199,141.375,-196.75,154.5,1.36328,1.26416,2.56836,28,36,15,31,0,35,1,-22,2611
0.28148,-0.59962,1.93358,80.875,-157.438,123.688,1.39111,0.876953,2.45459,-3,-17,-1,46,-100,-47,51,-45,2628
0.28148,-0.59962,1.93358,80.875,-157.438,123.688,1.39111,0.876953,2.45459,45,56,-5,-35,46,27,6,35,2644
0.28852,-0.650026,1.95476,55.5,-124.813,87.875,0.992188,0.875977,2.26465,-35,-23,-21,-38,-106,11,-127,-9,2661
0.279116,-0.685873,1.97763,11.75,-101.875,85.3125,0.291016,0.726074,1.95557,-15,8,21,-5,-27,36,32,41,2679
0.274714,-0.699654,2.00835,45.25,-93,94.6875,0.0522461,0.448242,1.66504,-49,-32,-31,-32,73,-41,7,0,2696
0.274714,-0.699654,2.00835,45.25,-93,94.6875,0.0522461,0.448242,1.66504,6,-15,-5,-51,-24,-25,57,-19,2713
0.282975,-0.71212,2.0371,74.25,-81.9375,91.0625,-0.148438,0.430664,1.2417,-122,-41,-26,-12,-7,-8,68,-48,2731
0.262086,-0.75747,2.1178,38.5,-43.875,105.625,-0.402344,0.211426,0.601074,55,25,13,15,59,-1,21,92,2748
0.244086,-0.754125,2.15766,34.125,-16,82.8125,-0.526855,-0.0307617,0.435547,-71,-71,40,104,39,-17,53,-13,2765
0.244086,-0.754125,2.15766,34.125,-16,82.8125,-0.526855,-0.0307617,0.435547,17,-8,9,1,-46,34,-24,15,2782
0.238515,-0.742981,2.18655,49.9375,8.4375,51.5625,-0.570801,-0.133789,0.201172,-20,18,17,21,3,-59,74,-52,2799
0.233458,-0.724834,2.21714,51.875,33.5625,51.375,-0.675293,-0.161621,-0.0302734,-28,-23,1,-13,-50,-19,-86,-76,2816
0.217559,-0.698624,2.24325,11.25,53.25,39.0625,-0.708496,-0.166992,-0.0791016,-28,-23,1,-13,-50,-19,-86,-76,2834
0.217559,-0.698624,2.24325,11.25,53.25,39.0625,-0.708496,-0.166992,-0.0791016,35,7,-6,-4,-58,-37,17,54,2851
0.282487,-0.503663,2.06399,23.5625,30.375,-159.375,0.351074,1.65186,2.35547,56,30,16,-87,15,6,-51,-9,2968
0.289276,-0.457037,1.99964,-65.75,82.125,-194.75,1.22559,2.16357,2.979,1,-11,-40,-94,10,0,-109,-12,2985
0.289276,-0.457037,1.99964,-65.75,82.125,-194.75,1.22559,2.16357,2.979,-45,-56,-24,71,-44,-29,53,-18,3001
0.271136,-0.401262,1.93491,-129,106.938,-206.125,1.55859,1.9209,2.72949,-37,-5,48,91,32,-28,-46,-65,3019
0.243296,-0.330213,1.86667,-149.75,150.125,-228.75,1.2583,1.54736,2.31006,5,-4,12,68,8,-28,6,-64,3037
0.213557,-0.256898,1.79981,-140.938,163.188,-226.375,0.909668,1.28711,1.97656,58,26,-18,-3,6,0,35,-6,3053
0.185984,-0.190442,1.7397,-130.938,160.938,-201,0.73877,1.15039,1.63672,27,34,10,-1,-27,0,26,37,3070
0.157126,-0.132748,1.68819,-119.625,145.875,-171.188,0.613281,0.994141,1.27295,-34,-6,-3,-14,-6,-18,-73,-33,3088
0.157126,-0.132748,1.68819,-119.625,145.875,-171.188,0.613281,0.994141,1.27295,-1,-11,-21,61,-30,1,-8,44,3105
0.132097,-0.0848728,1.64693,-96,130.875,-136.188,0.763184,0.797363,0.862305,-12,-4,1,27,-7,9,-9,23,3121
0.110974,-0.044082,1.61249,-74.9375,115.438,-113,0.674316,0.521973,0.458496,-7,40,32,73,13,8,72,8,3138
0.0934556,-0.0085846,1.58627,-58.125,103.688,-86.0625,0.583496,0.359375,0.0556641,14,1,4,58,3,-28,-83,-40,3154
0.0832976,0.0110072,1.5659,-46.75,91.75,-66.8125,0.604004,0.24707,-0.225098,34,19,-8,-128,5,-2,-14,42,3171
0.0732494,0.0251315,1.5522,-45.25,81.0625,-46.25,0.654785,0.227051,-0.42041,-74,-57,-1,55,46,-4,-73,34,3188
0.0668086,0.0312075,1.54688,-31.3125,64.3125,-20,0.726074,0.157227,-0.568848,-17,-43,-20,35,-19,-32,27,-30,3205
0.0674227,0.0249291,1.54884,-5.5625,40.9375,2.6875,0.887207,0.0610352,-0.703125,-50,25,18,-19,-7,-8,-15,8,3223
0.10124,-0.0201002,1.57691,17.9375,-20.1875,58.6875,0.856934,0.5625,-0.392578,52,-36,-16,45,-9,-25,7,34,3279
0.109828,-0.0562608,1.61422,20.8125,-75.75,115.813,0.9375,0.430664,-0.248047,54,-15,-17,16,-48,-14,-58,-38,3297
0.11495,-0.105408,1.66163,17.875,-106,148.625,1.13428,0.428223,0.149902,-33,20,7,-23,15,7,-34,-15,3314
0.124307,-0.165756,1.71132,34.1875,-139.125,160.563,1.09814,0.790039,0.910645,-18,-9,2,-18,-1,8,-40,4,3330
0.145079,-0.242736,1.76713,92.0625,-197.5,184.688,0.980957,1.2417,1.95801,21,1,27,2,16,-1,-43,2,3347
0.182695,-0.337192,1.8292,158.625,-239.313,212.813,1.02832,1.24609,2.45898,-5,43,-18,-70,-33,-5,-38,18,3363
0.182695,-0.337192,1.8292,158.625,-239.313,212.813,1.02832,1.24609,2.45898,-86,-41,-4,100,36,2,51,-9,3381
0.215545,-0.434956,1.89468,164.75,-240.75,226.063,1.28174,1.53369,2.84131,-12,-21,-71,-128,6,22,-5,-20,3398
0.231525,-0.525446,1.95329,123.25,-219.875,202.625,1.34229,1.0708,2.55273,9,13,10,40,-12,-13,-54,-41,3415
0.230005,-0.592342,1.997,62.1875,-162.563,147.563,1.08057,0.968262,2.28418,30,-6,8,72,33,-21,30,28,3432
0.230005,-0.592342,1.997,62.1875,-162.563,147.563,1.08057,0.968262,2.28418,18,30,11,-26,22,32,32,0,3449
0.233424,-0.681188,2.0593,59.875,-117.063,103.438,0.0341797,0.820313,1.6709,-11,-38,-13,-40,-19,-15,77,-1,3467
0.233424,-0.681188,2.0593,59.875,-117.063,103.438,0.0341797,0.820313,1.6709,-34,-9,40,87,-9,-13,-3,-15,3484
0.235651,-0.720232,2.09401,65.3125,-108.438,108.875,-0.230957,0.713379,1.25146,-21,-10,6,-42,6,4,80,23,3503
0.21204,-0.78469,2.17189,35.75,-77.375,100.188,-0.404297,0.275879,0.710938,-20,-4,7,-32,12,5,-23,5,3520
0.21204,-0.78469,2.17189,35.75,-77.375,100.188,-0.404297,0.275879,0.710938,14,-2,-1,101,13,-1,40,11,3536
0.180977,-0.78802,2.27996,39.6875,-11.625,57.75,-1.01123,-0.0966797,0.125977,50,52,9,-22,-9,-6,-32,-17,3606
0.161364,-0.759845,2.3039,8.1875,25.25,29.375,-1.22949,-0.326172,0.0712891,17,11,-6,-40,-5,36,50,10,3623
0.143631,-0.68158,2.29411,-29.1875,81.6875,-60.25,-1.42969,-0.483398,0.145508,30,-2,9,-49,-41,-7,22,20,3640
0.143631,-0.68158,2.29411,-29.1875,81.6875,-60.25,-1.42969,-0.483398,0.145508,-19,14,-5,-12,31,-18,-52,-15,3657
0.156949,-0.636633,2.25222,-31.6875,93,-113.313,-1.24414,-0.26123,0.305664,-39,-29,-14,-19,5,-2,-54,15,3674
0.172855,-0.58722,2.19857,-41,101.125,-145.5,-0.945313,-0.0649414,0.475098,-97,-3,-9,-1,9,3,95,-56,3691
0.189788,-0.53628,2.13772,-46.8125,98.75,-166.875,-0.689941,0.294922,0.91748,-11,-35,-37,29,14,-12,-39,-21,3707
0.214304,-0.487921,2.06902,-26.125,101.188,-195.938,-0.438477,1.2041,2.09863,-6,28,33,13,47,3,-64,-27,3724
0.214304,-0.487921,2.06902,-26.125,101.188,-195.938,-0.438477,1.2041,2.09863,17,7,-45,-108,9,12,-11,31,3741
0.241293,-0.4378,2.00039,-10.5,100,-203.813,0.382813,1.96191,2.77832,50,28,89,-35,12,11,-62,19,3759
0.242233,-0.37601,1.93022,-77,127.813,-221.625,1.45605,2.55127,3.29736,49,-31,-60,-43,-7,-11,44,-2,3776
0.218979,-0.302167,1.86243,-131.25,164.375,-227,1.62549,2.09082,2.86816,56,21,62,127,8,-2,66,12,3793
0.176589,-0.216524,1.7967,-169.938,204.625,-227.313,1.20557,1.69043,2.33154,13,-32,-7,103,-34,-16,6,-21,3811
0.133803,-0.130171,1.73116,-155.188,216.125,-221.438,0.792969,1.23975,2.02441,9,-13,2,53,0,6,32,15,3828
0.0957202,-0.0537357,1.67542,-123.938,199.375,-183,0.681152,1.47803,1.72021,-12,4,19,13,-12,-11,5,-5,3845
0.0957202,-0.0537357,1.67542,-123.938,199.375,-183,0.681152,1.47803,1.72021,-15,3,20,30,7,6,-22,7,3863
0.00803878,0.0897335,1.5671,-51.8125,121.688,-91.4375,0.739746,0.42627,0.0615234,8,5,7,127,6,3,-61,6,3911
-0.000175403,0.106836,1.54661,-39.0625,99.4375,-61.0625,0.774414,0.320313,-0.295898,-1,22,16,-33,-1,-10,124,6,3929
-0.0123239,0.119844,1.53266,-42.625,84.0625,-40.25,0.744629,0.192383,-0.453613,-8,-5,-7,-116,-26,-13,-32,13,3946
-0.0186244,0.124181,1.52729,-21.9375,58.25,-15.125,0.75293,0.101563,-0.579102,-2,14,9,-117,14,7,4,20,3963
-0.0186244,0.124181,1.52729,-21.9375,58.25,-15.125,0.75293,0.101563,-0.579102,-6,-15,4,52,10,7,-67,-8,3981
-0.0148658,0.114854,1.53042,3,29.625,8.5,0.922852,0.105957,-0.668457,1,-4,2,-49,13,-7,44,2,3998
-0.00214049,0.0922036,1.54325,15.125,3.4375,34.625,1.07227,0.256348,-0.594727,-12,17,6,-53,-66,-15,8,-8,4014
0.0179137,0.0547523,1.56914,19.125,-34.25,71.875,1.09863,0.462891,-0.39502,2,7,11,33,32,8,6,-4,4030
0.033332,0.0180061,1.6096,33.0625,-84,117.813,1.06787,0.37793,-0.23584,13,1,13,3,30,16,40,6,4047
0.033332,0.0180061,1.6096,33.0625,-84,117.813,1.06787,0.37793,-0.23584,14,9,-14,-15,11,8,71,44,4064
0.0484326,-0.0324744,1.65901,38.5625,-121.375,146.75,1.03027,0.291992,0.0722656,-28,7,-21,-46,-14,-3,-19,-3,4081
0.0650134,-0.0974426,1.71433,47.4375,-162.688,168.25,0.925781,0.623535,0.80957,20,-4,61,72,6,7,-14,-5,4098
0.0891195,-0.181855,1.7784,94.875,-227.438,200.125,0.928711,1.08545,1.7666,43,24,8,-103,-17,-10,-22,-9,4114
0.121055,-0.283637,1.84895,138,-269.438,226.313,0.974121,1.16504,2.42285,33,-12,-26,-36,-5,-3,-54,-14,4131
0.152771,-0.389666,1.91948,157.813,-275.375,231.125,1.09619,1.34961,2.84131,-18,-20,5,102,-3,7,-77,-3,4148
0.173218,-0.493525,1.9819,135.125,-267.438,207.688,1.10107,1.50732,2.97559,-13,16,51,-106,18,15,65,8,4165
0.1592,-0.652513,2.08572,45.8125,-182.438,144.813,0.580566,1.16846,2.21875,3,11,-14,89,-10,11,27,13,4231
0.147625,-0.711259,2.1299,46.625,-151.313,122.938,0.0507813,1.146,1.8501,13,5,5,59,14,3,35,24,4248
0.133951,-0.757303,2.17817,46.25,-135.688,129.25,-0.293457,0.760742,1.31641,22,7,17,102,0,3,45,21,4265
0.120532,-0.795003,2.23167,64.5625,-110.75,128.688,-0.424805,0.508301,0.990723,9,19,29,-109,24,-1,15,1,4282
0.106596,-0.823934,2.2874,71.9375,-84.9375,124.375,-0.504395,0.395996,0.723633,-15,-15,-21,2,28,-14,-14,9,4299
0.086098,-0.842611,2.3448,61.3125,-57.3125,118.625,-0.694824,0.225098,0.507324,-12,1,4,-86,4,4,-19,10,4316
0.059971,-0.850033,2.40187,48.8125,-26.75,109.063,-0.881348,-0.0786133,0.286621,1,11,18,-41,8,3,-47,-4,4333
0.0308116,-0.829022,2.45192,38,8.0625,79.3125,-1.06396,-0.296875,0.155762,10,-5,-5,-48,-2,3,-34,10,4350
0.0086718,-0.792725,2.47885,11.625,40.125,31.9375,-1.23389,-0.398926,0.134277,-10,1,-6,-7,10,-5,30,20,4368
0.00794967,-0.770126,2.47036,-19.3125,64.625,-17.75,-1.47363,-0.476074,0.0610352,-22,-30,3,-23,-9,0,-10,-18,4385
0.00794967,-0.770126,2.47036,-19.3125,64.625,-17.75,-1.47363,-0.476074,0.0610352,1,1,-16,-18,-15,-7,-1,18,4404
0.0171606,-0.741765,2.43985,-33.5625,80.5625,-64.5,-1.81543,-0.514648,0.149902,-8,-3,-3,-20,-3,4,-35,-7,4421
0.0432553,-0.70952,2.38936,-21.125,88.75,-111.125,-1.70264,-0.219238,0.370117,-54,9,2,-5,-1,-7,14,3,4439
0.0846621,-0.655608,2.30976,-27.375,122.75,-183.375,-1.06641,0.162598,0.569336,-4,13,0,-54,-30,-4,-41,8,4456
0.12951,-0.584714,2.2119,-44.375,159.875,-240.063,-0.503906,0.790527,1.13574,5,-40,-34,-53,-8,3,0,21,4472
0.158447,-0.507941,2.12397,-48,186.563,-244.688,-0.113281,1.90186,2.45068,-30,-19,-21,101,6,6,7,-9,4489
0.0974139,-0.0766876,1.73459,-132.938,210,-232.375,0.791504,1.1709,1.94434,-15,-1,-15,-16,-11,-5,13,-2,4595
0.0621195,-0.0115031,1.66557,-123.063,181.313,-212.438,0.601074,0.866211,1.47998,11,-8,-8,38,5,4,8,-8,4612
0.0621195,-0.0115031,1.66557,-123.063,181.313,-212.438,0.601074,0.866211,1.47998,21,14,-5,111,-7,6,-128,-4,4629
-0.0059835,0.0754148,1.55423,-90.875,111.688,-143.25,0.663574,0.572754,0.601074,-2,0,-4,-24,-34,-9,-26,2,4646
-0.0059835,0.0754148,1.55423,-90.875,111.688,-143.25,0.663574,0.572754,0.601074,-13,-11,-10,-56,6,-2,31,0,4663
-0.0264283,0.098445,1.51522,-56.1875,78.75,-110.5,0.631348,0.424805,0.147461,-11,12,4,-79,-29,3,21,12,4679
-0.0319697,0.103207,1.48957,-26.0625,58.125,-73.375,0.649414,0.274902,-0.283691,-24,5,2,-36,-1,10,-76,-2,4696
-0.0339477,0.104555,1.47462,-16.1875,52.4375,-42.5,0.749512,0.245605,-0.483887,16,8,-2,-28,0,0,50,14,4713
-0.0339477,0.104555,1.47462,-16.1875,52.4375,-42.5,0.749512,0.245605,-0.483887,-26,-17,-11,-38,-2,3,2,-41,4731
-0.0313669,0.0979911,1.47303,-7.125,37.75,-5,0.899902,0.243652,-0.631348,-15,9,8,-7,-4,2,37,-8,4747
-0.016399,0.0773336,1.48452,30.5625,13.5625,32.5,1.15479,0.14502,-0.782227,-11,-8,-8,-12,-4,-8,47,-4,4764
0.00267323,0.0755922,1.50445,50.1875,-5.625,56.8125,1.30664,0.341309,-0.729004,-11,-8,-8,-12,-4,-8,47,-4,4781
0.00267323,0.0755922,1.50445,50.1875,-5.625,56.8125,1.30664,0.341309,-0.729004,-2,0,1,1,5,0,-8,-7,4798
0.0325104,0.0381986,1.5369,37.625,-29.6875,91,1.14404,0.595215,-0.449219,-8,6,-11,-10,4,-6,-6,-6,4815
0.0442547,0.00709157,1.58597,22,-69.125,142.938,0.871582,0.466309,-0.121582,2,-12,-3,-5,-13,-2,-2,-19,4832
0.0513289,-0.105992,1.70904,8.4375,-167.375,189.625,0.617676,0.408203,0.92627,-13,-32,-7,-13,0,8,24,25,4848
0.0895223,-0.503458,1.97813,136.313,-304.625,193.313,0.804199,1.28125,3.07861,-3,-14,17,-36,13,2,-14,-1,4944
0.0970547,-0.600618,2.03903,113.313,-263.625,174.188,0.996582,1.45166,2.65479,13,3,11,3,10,0,-32,-3,4961
0.0757869,-0.672378,2.09607,36.3125,-193.438,148.688,0.822754,1.35645,2.26465,0,-15,-33,-27,-15,-9,-51,-3,4978
0.055969,-0.71945,2.14029,13.4375,-146.375,116.063,0.327637,0.939941,1.93164,13,4,2,34,13,9,-21,-11,4995
0.0485283,-0.754803,2.18141,49.3125,-116.25,101.563,-0.0424805,0.785156,1.55811,18,8,2,-11,6,1,29,-5,5013
0.0351514,-0.7874,2.22912,49.1875,-106.938,110.25,-0.342773,0.69873,1.12012,-13,-7,-5,12,-17,-4,30,7,5029
0.0351514,-0.7874,2.22912,49.1875,-106.938,110.25,-0.342773,0.69873,1.12012,-7,-16,2,-5,8,3,52,8,5046
0.0119372,-0.818298,2.28651,48.5,-103.125,119.75,-0.644531,0.311035,0.760254,-7,-16,2,-5,8,3,52,8,5064
-0.00772005,-0.843611,2.34401,64,-87.5625,112.688,-0.910156,0.131348,0.391602,23,-3,-9,-12,-7,-1,-46,-9,5080
-0.0264784,-0.839456,2.39277,54.375,-43.375,88.4375,-0.982422,-0.0683594,0.175781,0,-3,-2,-23,-7,6,-26,16,5098
-0.0423756,-0.815878,2.42244,23.125,3.1875,50.375,-1.16797,-0.133301,0.176758,24,8,-1,4,12,-4,-23,-21,5115
-0.0592936,-0.777934,2.4394,1.4375,29.5625,20.25,-1.44434,-0.322754,0.172852,13,8,-12,-6,-9,2,8,45,5133
-0.0678534,-0.732138,2.4402,-3.1875,53.3125,-13.375,-1.42725,-0.409668,0.132813,6,-5,3,-4,1,0,-1,11,5150
-0.0678534,-0.732138,2.4402,-3.1875,53.3125,-13.375,-1.42725,-0.409668,0.132813,-1,-8,-1,9,-4,-13,-27,-15,5167
-0.0571703,-0.628546,2.39062,-31.25,78.125,-70.9375,-1.11475,-0.141602,0.390625,-30,-24,-11,-3,6,6,12,-4,5184
-0.0571703,-0.628546,2.39062,-31.25,78.125,-70.9375,-1.11475,-0.141602,0.390625,54,7,-2,-18,8,5,11,24,5202
0.0466133,-0.362276,2.03878,-75.875,179.75,-237.813,0.769043,1.78906,2.91797,-22,9,-20,42,0,11,-33,-25,5291
0.0416626,-0.288748,1.95002,-95.875,200,-250.375,0.947266,1.91553,3.03613,75,22,15,43,5,-1,-25,0,5308
0.0416626,-0.288748,1.95002,-95.875,200,-250.375,0.947266,1.91553,3.03613,24,-29,2,88,-23,-28,82,4,5325
0.0290426,-0.213831,1.86068,-99.8125,205.813,-255.875,0.885742,2.22607,2.8335,28,12,4,-17,-19,-3,50,16,5342
-0.00984381,-0.144402,1.78553,-149.938,196.938,-213.813,1.07617,1.84131,2.27051,-55,-11,15,-25,-27,-13,79,12,5360
-0.0494626,-0.0801111,1.71753,-135.313,190.063,-188.25,0.896484,1.23145,1.74658,12,19,23,-22,-2,-17,34,-10,5377
-0.071107,-0.0280236,1.65566,-86.0625,172.063,-166.75,0.728516,0.770508,1.19043,-2,-5,3,24,-5,-5,-28,3,5394
-0.0872541,0.0164929,1.5983,-58,151.75,-152.625,0.645508,0.592285,0.743164,10,23,2,68,-2,10,-39,-10,5412
-0.102403,0.0504061,1.55247,-47.75,120.375,-120.75,0.628906,0.470703,0.395996,19,3,6,39,18,6,14,10,5429
-0.102403,0.0504061,1.55247,-47.75,120.375,-120.75,0.628906,0.470703,0.395996,-7,-8,-5,10,15,3,-29,-13,5446
-0.10939,0.0605541,1.52053,-36.3125,82.375,-84.1875,0.630859,0.316895,0.0708008,-31,-6,-3,100,-9,9,-23,-1,5463
-0.109893,0.062943,1.49928,-11.75,52,-56.25,0.571777,0.223633,-0.0854492,1,32,24,109,38,16,10,1,5480
-0.0948218,0.0511068,1.49045,31.0625,14,-25.125,0.670898,0.211914,-0.112793,43,-9,29,-55,14,14,-7,0,5496
-0.0682441,0.0295037,1.49578,62.5625,6.5,15.625,1.03809,0.217773,-0.449219,-29,-10,-16,-101,-9,25,3,6,5514
-0.0551602,0.0300587,1.50478,36.625,0,25.5625,1.36377,0.284668,-0.556152,-37,-10,-25,-29,-16,-28,4,-1,5531
-0.0413168,-0.00185604,1.51872,18,-11,39,1.2168,0.321777,-0.452148,0,-12,-12,-41,13,36,25,13,5548
0.0150836,-0.365359,1.86324,114.438,-279.063,249.688,0.774414,1.25732,2.40332,-10,-22,-88,-128,-20,-7,-66,-6,5664
0.0150836,-0.365359,1.86324,114.438,-279.063,249.688,0.774414,1.25732,2.40332,-8,17,-9,34,3,-1,7,11,5682
0.0335457,-0.464696,1.96069,165.563,-278.5,263,1.0708,1.58838,2.83936,10,-2,-11,-11,-15,-18,-10,-18,5699
0.0335457,-0.464696,1.96069,165.563,-278.5,263,1.0708,1.58838,2.83936,2,-8,-67,-14,-17,-8,-28,-19,5716
0.0335457,-0.464696,1.96069,165.563,-278.5,263,1.0708,1.58838,2.83936,1,-1,43,52,1,0,-3,0,5733
0.0155795,-0.637129,2.1459,88.9375,-216,213.625,0.978516,1.38184,2.64648,-13,6,-5,90,6,3,1,-8,5750
0.0155795,-0.637129,2.1459,88.9375,-216,213.625,0.978516,1.38184,2.64648,18,-4,0,67,-8,-6,-38,2,5767
-0.0365003,-0.73409,2.27752,30.4375,-132.188,133,0.212402,0.930176,1.7876,-3,-2,15,77,7,15,28,-1,5784
-0.0613927,-0.765633,2.33235,25.3125,-114.625,119.25,-0.22168,0.774902,1.31787,8,19,12,105,2,5,18,-2,5801
-0.0920859,-0.793261,2.39091,25.5,-105.25,116.375,-0.476074,0.33252,0.930176,-16,5,2,-48,-18,0,-25,0,5818
-0.118402,-0.817628,2.44813,39.75,-96.5625,107.125,-0.635254,0.204102,0.606445,0,7,2,-128,-5,-5,-48,14,5836
-0.137286,-0.821321,2.49604,41.125,-79.0625,89.625,-0.78418,0.0727539,0.407227,-4,5,-4,-121,15,-7,63,-2,5852
-0.161749,-0.819601,2.54418,33.8125,-66,81.9375,-0.976074,-0.0839844,0.242188,18,17,7,-116,-3,7,-5,11,5870
-0.161749,-0.819601,2.54418,33.8125,-66,81.9375,-0.976074,-0.0839844,0.242188,-53,-18,-7,-30,-5,-1,-3,-3,5887
-0.180516,-0.809776,2.57912,28.0625,-36.6875,53.5625,-1.0332,-0.20459,0.116699,-3,-3,-6,-7,-6,13,-20,-6,5904
-0.189491,-0.785356,2.59125,11.5,6.3125,12.875,-1.19824,-0.271484,0.0380859,-23,-5,-1,-5,-23,-21,-55,-14,5921
-0.143563,-0.662547,2.47883,-27.5,100.25,-113.438,-1.10645,-0.0385742,0.320801,-47,-16,-9,-14,-5,0,-18,7,5981
-0.111268,-0.624415,2.41181,-25.75,110.688,-138.438,-0.89502,0.118164,0.493652,9,21,28,14,0,4,-11,-1,5999
-0.111268,-0.624415,2.41181,-25.75,110.688,-138.438,-0.89502,0.118164,0.493652,-1,-33,-47,54,-11,0,-2,-24,6016
-0.0690479,-0.578633,2.33349,-14.75,128.688,-167.938,-0.586426,0.518066,1.08789,20,-7,-41,-23,-26,-3,55,13,6032
0.0205575,-0.482881,2.16631,-2.3125,141.563,-214,0.665527,2.14551,2.85059,21,9,25,92,12,-9,-9,9,6049
0.0205575,-0.482881,2.16631,-2.3125,141.563,-214,0.665527,2.14551,2.85059,60,10,63,-128,-1,12,4,19,6066
0.0289543,-0.420933,2.08299,-80.375,172.313,-219.438,1.4751,2.47412,3.16943,-14,-21,-106,-128,-18,13,75,-1,6083
0.0287514,-0.349079,1.98963,-101.063,198.375,-254.188,1.34814,2.12646,2.9834,13,-17,-5,97,-18,5,31,1,6100
0.00823245,-0.271405,1.90215,-135.5,218.375,-242.938,1.23389,1.95459,2.48145,-11,-8,-14,47,-2,8,3,5,6116
-0.0236591,-0.196778,1.81994,-146.25,215.688,-227.938,0.94873,1.53711,2.07471,16,-4,-14,43,10,-4,42,3,6133
-0.0236591,-0.196778,1.81994,-146.25,215.688,-227.938,0.94873,1.53711,2.07471,10,2,10,97,13,3,65,7,6151
-0.0725556,-0.0856732,1.68052,-101.188,163.938,-174.813,0.673828,0.862305,1.04932,10,-10,-11,85,11,2,-19,30,6167
-0.0725556,-0.0856732,1.68052,-101.188,163.938,-174.813,0.673828,0.862305,1.04932,10,5,3,127,1,-13,22,-12,6184
-0.096102,-0.0437279,1.62331,-85.5,148.813,-150.813,0.887695,0.427246,0.331543,-5,-8,5,-33,-3,-12,7,4,6201
-0.117027,-0.00563639,1.57054,-71,138.813,-137,0.833008,0.439453,0.000976563,-14,-2,-8,-28,-4,-9,-29,0,6218
-0.136056,0.0226966,1.53567,-60.0625,106.688,-87.375,0.790527,0.432617,-0.285156,0,15,-4,-50,12,-4,-10,-20,6234
-0.139088,-0.0239891,1.53961,5.9375,-7.125,53.0625,1.10156,0.12793,-0.520996,36,16,-1,-22,6,-3,3,5,6331
-0.134491,-0.0943581,1.61983,5.3125,-103.5,127.563,0.828613,0.19043,-0.0981445,-11,11,35,42,-13,-19,11,1,6348
-0.134491,-0.0943581,1.61983,5.3125,-103.5,127.563,0.828613,0.19043,-0.0981445,48,18,47,36,-13,-13,-17,-43,6365
-0.135677,-0.139627,1.68057,14.5625,-137.375,155.938,0.879883,0.081543,0.15918,-46,8,42,62,-44,-16,-19,-4,6383
-0.1321,-0.195451,1.74419,31.25,-169.063,160.563,0.948242,0.443848,0.681152,65,-18,5,69,52,3,-9,-8,6401
-0.131161,-0.255391,1.81516,48,-196.688,174.063,0.915527,1.09326,1.64746,65,-18,5,69,52,3,-9,-8,6418
-0.131161,-0.255391,1.81516,48,-196.688,174.063,0.915527,1.09326,1.64746,42,51,17,12,9,14,-3,20,6434
-0.121471,-0.325747,1.9034,100.188,-230.313,214.938,0.859863,1.39209,2.30029,-26,-29,-53,-72,-40,1,91,0,6451
-0.0921724,-0.48225,2.10227,165.938,-252.938,237.813,0.941406,1.84033,3.00049,13,-43,-13,-39,43,-10,90,-24,6467
-0.0921724,-0.48225,2.10227,165.938,-252.938,237.813,0.941406,1.84033,3.00049,33,8,-9,-30,5,22,23,-2,6484
-0.0956229,-0.551972,2.19904,127.063,-221.75,221.5,1.19238,1.72021,2.66895,-77,-40,1,-46,-26,6,-14,-38,6501
-0.120205,-0.611059,2.283,62.125,-189.813,181.875,0.82666,1.35596,2.3252,8,29,2,-70,-41,4,85,34,6518
-0.120205,-0.611059,2.283,62.125,-189.813,181.875,0.82666,1.35596,2.3252,75,-54,-32,-54,-30,-20,-15,-44,6536
-0.154485,-0.700553,2.42453,67.8125,-151.75,140.938,-0.237793,0.91748,1.43896,0,-10,1,-103,-14,-3,-23,11,6553
-0.154485,-0.700553,2.42453,67.8125,-151.75,140.938,-0.237793,0.91748,1.43896,18,-27,7,83,-17,-16,17,2,6570
-0.180351,-0.736017,2.49394,48.0625,-144.313,135.5,-0.504395,0.549805,1.06592,1,11,-3,-30,-6,4,-25,18,6587
-0.253677,-0.778901,2.65913,16.625,-59.875,74.625,-0.849609,-0.00244141,0.358887,-34,16,10,-5,-7,-6,-31,7,6646
-0.253677,-0.778901,2.65913,16.625,-59.875,74.625,-0.849609,-0.00244141,0.358887,56,28,10,5,-7,3,93,18,6663
-0.291054,-0.73728,2.70602,2.25,-10.4375,20.375,-1.23145,-0.301758,0.180176,22,0,-9,3,15,2,-25,-6,6680
-0.295344,-0.700929,2.69947,-12.375,31.125,-16.25,-1.36279,-0.287109,0.108398,-72,-5,6,0,23,16,-29,-30,6698
-0.295344,-0.700929,2.69947,-12.375,31.125,-16.25,-1.36279,-0.287109,0.108398,15,14,10,18,12,7,63,11,6715
-0.281263,-0.60635,2.61775,-59.25,91.375,-95.3125,-1.15918,-0.09375,0.353516,11,6,1,-58,-4,-19,-72,11,6732
-0.281263,-0.60635,2.61775,-59.25,91.375,-95.3125,-1.15918,-0.09375,0.353516,47,-2,-6,-4,0,1,19,22,6749
-0.26083,-0.578414,2.55414,-46.875,99.25,-127.125,-0.910156,0.0634766,0.582031,-23,25,17,-46,27,1,-22,0,6766
-0.26083,-0.578414,2.55414,-46.875,99.25,-127.125,-0.910156,0.0634766,0.582031,-35,-4,7,30,-47,-28,-72,-11,6782
-0.194772,-0.511862,2.39402,-33.0625,141.813,-181.688,-0.187012,1.35547,1.91406,-24,23,11,-10,7,4,-7,86,6799
-0.17359,-0.469539,2.29845,-68.6875,163.563,-215.313,0.575684,1.84961,2.80859,-31,2,50,-37,31,6,-11,-15,6816
-0.17359,-0.469539,2.29845,-68.6875,163.563,-215.313,0.575684,1.84961,2.80859,3,-2,-44,-56,-13,-1,-108,13,6833
-0.188223,-0.352984,2.09276,-153.375,219.563,-242.625,1.39502,2.10596,2.98633,-29,-17,-6,-44,9,5,90,-20,6850
-0.188223,-0.352984,2.09276,-153.375,219.563,-242.625,1.39502,2.10596,2.98633,-55,-20,12,108,51,-15,45,-33,6867
-0.215591,-0.291086,1.99395,-168.063,228,-228.063,1.146,1.81299,2.36963,-19,-32,-24,57,-7,10,19,-34,6884
-0.215591,-0.291086,1.99395,-168.063,228,-228.063,1.146,1.81299,2.36963,-15,-2,4,52,9,10,-6,7,6901
-0.315733,-0.0400758,1.60641,-42.75,104.375,-69.875,0.766602,0.226074,-0.181641,20,1,5,-15,-40,1,-50,32,7007
-0.315733,-0.0400758,1.60641,-42.75,104.375,-69.875,0.766602,0.226074,-0.181641,12,13,1,-60,1,-2,62,20,7024
-0.32268,-0.0420109,1.57128,-7.0625,49.625,-16.75,0.876953,0.178223,-0.368652,-14,-7,2,-31,-13,3,35,6,7041
-0.319874,-0.0623966,1.57388,12.875,14.25,12.375,1.08838,0.103027,-0.520996,14,10,6,-35,7,34,10,4,7058
-0.319874,-0.0623966,1.57388,12.875,14.25,12.375,1.08838,0.103027,-0.520996,7,-4,3,12,1,-8,-2,-6,7075
-0.311952,-0.13262,1.60625,3.4375,-41.0625,49.5625,1.18945,0.31543,-0.398926,13,-19,-18,-19,20,2,24,-9,7092
-0.311952,-0.13262,1.60625,3.4375,-41.0625,49.5625,1.18945,0.31543,-0.398926,34,6,-14,-45,-31,-5,-22,-2,7109
-0.312055,-0.174616,1.64249,0.375,-78.8125,85.125,1.01123,0.28418,-0.212891,41,21,4,6,23,3,7,-25,7126
-0.312055,-0.174616,1.64249,0.375,-78.8125,85.125,1.01123,0.28418,-0.212891,-20,-31,-38,-12,-27,-20,-25,13,7142
-0.320046,-0.253625,1.75672,26.375,-164.438,130.5,0.911133,0.390625,0.564453,20,31,26,29,34,10,33,11,7159
-0.313911,-0.307031,1.83354,57,-204,162.375,0.990723,0.876465,1.37695,54,-10,4,-80,-63,-4,-40,-26,7176
-0.317062,-0.3683,1.93205,84.5625,-249.25,199,0.927246,1.28369,2.2627,-23,-23,24,2,-34,-2,-14,11,7193
-0.315052,-0.439021,2.04647,134.563,-286.688,224,0.812012,1.22363,2.85938,4,-14,2,-42,-3,2,-23,-27,7209
-0.31191,-0.514021,2.17109,173.25,-302.438,236.125,0.989258,1.52783,3.14844,8,24,15,22,27,1,-2,18,7226
-0.31191,-0.514021,2.17109,173.25,-302.438,236.125,0.989258,1.52783,3.14844,-26,34,-5,34,12,-12,-13,-5,7243
-0.31191,-0.514021,2.17109,173.25,-302.438,236.125,0.989258,1.52783,3.14844,19,6,11,78,17,-11,52,7,7260
-0.428634,-0.714915,2.57578,39.5,-120.125,99.5625,-0.23584,0.506348,1.13525,8,10,0,-31,21,6,-23,-8,7347
-0.444397,-0.729765,2.62737,43.4375,-100.688,84.0625,-0.428223,0.36377,0.894043,3,8,6,-29,5,-8,-10,-1,7364
-0.444397,-0.729765,2.62737,43.4375,-100.688,84.0625,-0.428223,0.36377,0.894043,-32,2,6,-6,-12,5,14,1,7381
-0.448401,-0.70996,2.70488,49.9375,-54.5,74.5,-0.793945,0.0673828,0.37793,-13,-7,6,5,-10,-6,-66,4,7397
-0.457683,-0.686878,2.73382,26.625,-19.125,61.75,-0.891602,-0.0800781,0.196289,-7,6,-4,-2,-1,-12,-57,-37,7414
-0.457683,-0.686878,2.73382,26.625,-19.125,61.75,-0.891602,-0.0800781,0.196289,-26,-25,-14,-14,2,6,-20,1,7432
-0.478922,-0.614626,2.76279,10.9375,22.9375,15.3125,-1.29736,-0.483398,0.0654297,-25,-5,6,2,-6,1,25,10,7449
-0.478922,-0.614626,2.76279,10.9375,22.9375,15.3125,-1.29736,-0.483398,0.0654297,16,2,-5,-32,-2,-7,-12,8,7465
-0.475744,-0.574032,2.74827,5.1875,48.9375,-28.3125,-1.31592,-0.445313,0.0898438,9,-11,-16,-34,-7,-11,-40,0,7483
-0.475744,-0.574032,2.74827,5.1875,48.9375,-28.3125,-1.31592,-0.445313,0.0898438,-28,-3,12,27,2,-10,-2,-4,7500
-0.44661,-0.518314,2.65189,-36.6875,84.5625,-109.813,-1.00049,-0.0395508,0.425293,28,3,-7,5,8,2,-14,-9,7518
-0.422357,-0.503316,2.58286,-35.3125,96.0625,-140.75,-0.679688,0.226074,0.751953,35,-17,-26,-62,-14,-14,-44,-9,7535
-0.422357,-0.503316,2.58286,-35.3125,96.0625,-140.75,-0.679688,0.226074,0.751953,23,-50,-86,-32,-1,-8,4,-27,7551
-0.394434,-0.488382,2.49917,-34,123.375,-176.625,-0.365234,0.88916,1.57178,17,16,51,60,16,7,30,-6,7568
-0.394434,-0.488382,2.49917,-34,123.375,-176.625,-0.365234,0.88916,1.57178,0,33,31,-22,-25,3,30,9,7586
-0.339883,-0.446879,2.3072,-62.875,153.875,-219.25,0.904297,2.22168,2.97949,-11,13,58,-58,-23,-17,-31,-25,7602
-0.363137,-0.315998,1.98281,-155.5,233.125,-223.125,0.931152,1.58789,2.32861,-4,-3,3,-5,1,-5,58,16,7693
-0.402553,-0.224199,1.81017,-114,201.188,-152.063,0.848145,1.14209,1.35303,-58,-18,5,2,-1,-14,5,-18,7710
-0.402553,-0.224199,1.81017,-114,201.188,-152.063,0.848145,1.14209,1.35303,-12,3,-4,-55,-20,-6,-13,-24,7727
-0.424259,-0.155468,1.67136,-65.375,176.25,-127.063,0.832031,0.342773,0.330078,17,-11,-7,74,4,-4,-38,3,7745
-0.424259,-0.155468,1.67136,-65.375,176.25,-127.063,0.832031,0.342773,0.330078,-7,2,-4,-12,-4,7,-19,22,7762
-0.440079,-0.1045,1.58477,-36.0625,112.25,-52.375,0.891602,0.315918,-0.260254,-29,6,6,-45,0,10,-48,-5,7779
-0.44325,-0.107879,1.56359,-8.5,79.1875,-30.1875,0.958984,0.120117,-0.475586,6,2,51,17,10,-11,12,7,7795
-0.44325,-0.107879,1.56359,-8.5,79.1875,-30.1875,0.958984,0.120117,-0.475586,10,-6,-12,-14,5,-8,-6,-17,7812
-0.44325,-0.107879,1.56359,-8.5,79.1875,-30.1875,0.958984,0.120117,-0.475586,-11,-19,-5,-46,9,7,20,-3,7829
-0.431156,-0.14417,1.56396,34.5625,17.625,28.1875,1.28857,0.0898438,-0.689941,-2,18,-14,-2,3,-8,28,12,7846
-0.431156,-0.14417,1.56396,34.5625,17.625,28.1875,1.28857,0.0898438,-0.689941,14,5,-7,18,4,-8,-4,-19,7863
-0.431156,-0.14417,1.56396,34.5625,17.625,28.1875,1.28857,0.0898438,-0.689941,41,0,21,8,-1,6,-2,0,7881
-0.421251,-0.233469,1.66753,23.5625,-111.375,117.875,0.985352,0.225098,0.0175781,28,9,-6,30,-9,4,12,21,7899
-0.426046,-0.26768,1.73769,27.75,-160.75,143.75,0.747559,0.272949,0.541016,-13,54,68,16,5,-3,-53,-17,7916
-0.426046,-0.26768,1.73769,27.75,-160.75,143.75,0.747559,0.272949,0.541016,1,-3,-31,0,-12,3,-44,7,7933
-0.426046,-0.26768,1.73769,27.75,-160.75,143.75,0.747559,0.272949,0.541016,-15,-6,46,-29,-4,-8,-68,0,7950
-0.420397,-0.371957,1.94057,113.375,-268.125,213.188,0.90625,1.20996,2.04834,-21,17,30,-18,-10,-9,41,-13,8003
-0.470093,-0.549435,2.32556,91.5625,-278,219.938,1.01514,1.75342,2.67871,4,-27,-18,46,-6,-20,-15,-11,8020
-0.470093,-0.549435,2.32556,91.5625,-278,219.938,1.01514,1.75342,2.67871,21,10,18,40,12,22,-3,18,8037
-0.524401,-0.590177,2.44695,32.3125,-242.375,202.063,0.92041,1.47461,2.46484,-3,1,-7,-6,-9,-9,-1,-12,8055
-0.60926,-0.643073,2.64783,53.8125,-173.125,144.813,0.358887,1.08398,1.72998,-16,-28,-4,-14,3,-2,-32,5,8072
-0.60926,-0.643073,2.64783,53.8125,-173.125,144.813,0.358887,1.08398,1.72998,-15,9,23,55,7,2,-3,-9,8089
-0.650716,-0.653963,2.734,30.5,-141.25,140.875,0.0214844,0.883301,1.30762,10,10,5,-35,3,-17,21,13,8106
-0.650716,-0.653963,2.734,30.5,-141.25,140.875,0.0214844,0.883301,1.30762,-6,2,5,-25,3,-11,-42,-1,8123
-0.714131,-0.64967,2.88655,39.5,-114.688,136.875,-0.74707,0.266602,0.696289,-6,-5,3,23,27,-2,-46,-6,8140
-0.735713,-0.636624,2.95187,45.25,-85.5625,129.188,-0.883789,0.0776367,0.478516,19,-5,4,-13,1,1,-36,3,8157
-0.735713,-0.636624,2.95187,45.25,-85.5625,129.188,-0.883789,0.0776367,0.478516,-44,-13,-3,-9,1,-7,-7,22,8175
-0.764552,-0.583445,3.03899,26.125,-33.0625,73.5,-1.15381,-0.267578,0.235352,5,22,0,-13,-5,2,43,11,8191
-0.764552,-0.583445,3.03899,26.125,-33.0625,73.5,-1.15381,-0.267578,0.235352,4,-9,-6,1,-3,7,-18,-15,8209
-0.763267,-0.543152,3.04198,9.5,17.4375,25.75,-1.30908,-0.181152,0.163574,23,1,1,-4,7,-14,24,-8,8226
-0.763267,-0.543152,3.04198,9.5,17.4375,25.75,-1.30908,-0.181152,0.163574,-9,-14,-36,-50,4,15,-21,-12,8243
-0.740861,-0.461193,2.97201,-26.0625,93.5625,-65.625,-1.34766,-0.0644531,0.277832,9,16,-2,-10,17,-5,-34,-11,8262
-0.713903,-0.448895,2.91039,-6.5,114.75,-106,-1.15771,0.0869141,0.464355,51,23,74,86,0,4,-12,10,8309
-0.626921,-0.424673,2.73039,7.75,180.875,-186.188,-0.574219,0.86084,1.27686,-21,-22,-20,-2,3,0,-28,3,8326
-0.585502,-0.411352,2.61674,-13.5625,200.938,-223.188,-0.0415039,1.64404,2.26221,13,-3,17,50,8,-31,11,-7,8343
-0.585502,-0.411352,2.61674,-13.5625,200.938,-223.188,-0.0415039,1.64404,2.26221,-21,8,-18,-102,7,-6,-3,-9,8360
-0.585502,-0.411352,2.61674,-13.5625,200.938,-223.188,-0.0415039,1.64404,2.26221,-18,-32,-23,-17,5,14,22,2,8377
-0.535153,-0.371562,2.36008,-84.8125,233.75,-259.813,1.4751,2.39941,3.54932,0,6,4,-84,-10,15,92,-2,8394
-0.541563,-0.35095,2.24218,-138.063,212.875,-241.188,1.81348,2.05713,2.82813,-6,-15,7,83,1,2,61,9,8410
-0.541563,-0.35095,2.24218,-138.063,212.875,-241.188,1.81348,2.05713,2.82813,40,11,6,82,6,-12,-26,-12,8428
-0.541563,-0.35095,2.24218,-138.063,212.875,-241.188,1.81348,2.05713,2.82813,-7,1,0,125,-4,-13,29,9,8445
-0.575452,-0.294427,1.89911,-113.75,192.938,-226.625,0.721191,0.884277,1.34912,-3,-2,-8,-95,-3,8,-73,-20,8462
-0.575452,-0.294427,1.89911,-113.75,192.938,-226.625,0.721191,0.884277,1.34912,14,-9,9,10,-18,-8,-58,-7,8479
-0.589301,-0.290483,1.75164,-76.75,96.875,-139.188,0.656738,0.450684,0.505371,-7,0,-1,37,-3,0,-5,-3,8497
-0.585506,-0.296089,1.70405,-34.1875,67.875,-109.813,0.64502,0.405273,0.0581055,-1,-6,5,-43,7,10,11,2,8514
-0.585506,-0.296089,1.70405,-34.1875,67.875,-109.813,0.64502,0.405273,0.0581055,-22,-5,-8,-26,-1,-1,-59,-21,8531
-0.585506,-0.296089,1.70405,-34.1875,67.875,-109.813,0.64502,0.405273,0.0581055,-25,-1,8,-3,3,3,22,6,8549
-0.584371,-0.326224,1.64983,-41.5,44.4375,-28.9375,0.733398,0.390625,-0.363281,0,6,10,0,25,-17,-50,17,8566
-0.593859,-0.380828,1.66941,40.625,-1.625,44.4375,1.14307,0.271973,-0.597656,33,13,13,12,-4,11,33,2,8630
-0.586017,-0.402006,1.69671,42.5625,-19.1875,78.8125,1.13818,0.467285,-0.457031,11,-25,1,-13,2,-6,-2,17,8647
-0.586017,-0.402006,1.69671,42.5625,-19.1875,78.8125,1.13818,0.467285,-0.457031,-9,-24,4,14,-15,-3,24,24,8664
-0.602082,-0.402056,1.80835,33.5,-91.1875,147.938,0.961426,0.251953,0.281738,40,42,88,14,8,8,-46,3,8682
-0.602082,-0.402056,1.80835,33.5,-91.1875,147.938,0.961426,0.251953,0.281738,-14,17,-58,-21,-8,-4,-31,-15,8700
-0.606293,-0.413127,1.88895,63.625,-141.25,168.563,1.00049,0.481445,1.0249,13,-24,-66,-19,-15,8,15,-5,8717
-0.60392,-0.453474,2.10856,149.875,-235.75,215.813,0.740723,1.33252,2.50537,-14,-8,-32,10,-10,-1,49,6,8734
-0.60392,-0.453474,2.10856,149.875,-235.75,215.813,0.740723,1.33252,2.50537,30,-15,-43,-29,5,16,-22,-20,8751
-0.610163,-0.486956,2.24503,159.625,-277.75,231.813,0.758789,1.34033,3.02002,-8,1,13,29,-1,-2,79,18,8768
-0.610163,-0.486956,2.24503,159.625,-277.75,231.813,0.758789,1.34033,3.02002,17,-7,31,36,17,18,28,9,8785
-0.672634,-0.547084,2.49358,41.625,-233.563,182.813,0.878418,1.44971,2.46582,18,-28,-23,22,18,-4,5,2,8803
-0.718727,-0.568145,2.58948,13.5,-196.063,140.188,0.518555,1.125,2.13916,25,-1,15,18,-5,3,17,6,8820
-0.718727,-0.568145,2.58948,13.5,-196.063,140.188,0.518555,1.125,2.13916,-12,6,-6,10,-1,-2,-7,13,8838
-0.718727,-0.568145,2.58948,13.5,-196.063,140.188,0.518555,1.125,2.13916,10,14,-17,-36,-25,-5,63,2,8855
-0.78976,-0.590189,2.75623,31.75,-148.563,123.688,-0.249512,0.723145,1.3125,15,11,5,-5,2,-10,19,11,8873
-0.812044,-0.586246,2.82557,32.125,-124.875,122.625,-0.416504,0.426758,1.00244,17,10,-8,-25,-16,19,-32,-11,8890
-0.86321,-0.529288,2.9714,6.625,-55.6875,77.375,-0.973145,-0.141113,0.362305,-13,-16,-12,-33,-8,4,56,20,8941
-0.86321,-0.529288,2.9714,6.625,-55.6875,77.375,-0.973145,-0.141113,0.362305,62,28,5,13,28,-4,22,24,8958
-0.874023,-0.473506,3.00001,1.375,-16.6875,-1.25,-1.28613,-0.306152,0.175781,-1,7,-4,-11,-3,18,64,14,8975
-0.874023,-0.473506,3.00001,1.375,-16.6875,-1.25,-1.28613,-0.306152,0.175781,8,-7,-4,-12,2,-4,-11,5,8993
-0.874346,-0.446315,2.98481,-19.3125,20.0625,-37.375,-1.35889,-0.277832,0.201172,-16,-40,-72,-73,-2,-7,-38,-21,9011
-0.874346,-0.446315,2.98481,-19.3125,20.0625,-37.375,-1.35889,-0.277832,0.201172,-16,10,1,16,-12,-2,-6,4,9028
-0.859209,-0.430617,2.88665,-48.75,91.625,-124.688,-1.0293,0.0292969,0.535156,-11,-12,37,-10,-16,-4,-36,-2,9045
-0.835938,-0.4375,2.80728,-41.375,128.563,-157.313,-0.795898,0.366699,0.706055,-3,25,55,28,19,10,-18,15,9061
-0.835938,-0.4375,2.80728,-41.375,128.563,-157.313,-0.795898,0.366699,0.706055,-54,-17,26,-14,-11,-3,38,-4,9078
-0.77732,-0.448571,2.59464,-46.0625,204.625,-215,-0.0180664,1.69092,2.18018,-14,-10,2,-61,28,-22,-65,-9,9095
-0.77732,-0.448571,2.59464,-46.0625,204.625,-215,-0.0180664,1.69092,2.18018,-68,-31,-55,-57,5,-9,-90,-63,9112
-0.742719,-0.447115,2.46867,-57.375,227.375,-233.063,0.774414,2.05664,2.87207,-5,25,-21,-46,-6,-5,-57,-24,9129
-0.742719,-0.447115,2.46867,-57.375,227.375,-233.063,0.774414,2.05664,2.87207,60,16,25,38,-16,-4,40,-9,9146
-0.713422,-0.409541,2.19367,-135.563,289.75,-233.625,1.12549,2.11523,2.83594,32,-14,-35,-107,-21,4,23,-6,9163
-0.71123,-0.377646,2.06293,-137.75,295.938,-202.625,1.00293,1.5166,2.31738,-1,-27,22,20,-17,-18,25,6,9181
-0.71123,-0.377646,2.06293,-137.75,295.938,-202.625,1.00293,1.5166,2.31738,29,-18,-11,28,8,-3,-8,-17,9198
-0.684117,-0.284751,1.72925,-73.625,237.063,-145.063,0.538086,0.774414,1.04004,7,0,12,2,-7,12,14,-10,9271
-0.684117,-0.284751,1.72925,-73.625,237.063,-145.063,0.538086,0.774414,1.04004,-1,1,0,74,-1,-19,27,6,9287
-0.663262,-0.228338,1.55776,-8.1875,105.125,-50.875,0.802246,0.228027,-0.132324,13,12,7,37,18,-8,36,30,9304
-0.663262,-0.228338,1.55776,-8.1875,105.125,-50.875,0.802246,0.228027,-0.132324,-11,-2,-2,-128,-2,0,9,8,9322
-0.670395,-0.2492,1.53522,-8.875,27.1875,10.625,0.932129,0.0668945,-0.333496,-83,-24,-13,-64,2,-4,-23,-14,9339
-0.679378,-0.272552,1.55137,5.1875,-14.9375,38.5625,1.10742,-0.0302734,-0.439453,8,19,18,-70,14,5,-49,-13,9356
-0.679378,-0.272552,1.55137,5.1875,-14.9375,38.5625,1.10742,-0.0302734,-0.439453,-15,-9,1,-32,-3,6,30,21,9373
-0.688528,-0.35089,1.624,15.5625,-99,72.5625,1.19775,0.338867,-0.189453,4,14,-4,-22,6,1,1,1,9390
-0.709112,-0.36885,1.68793,0.6875,-137.625,111.063,1.01904,0.316895,0.0214844,-5,1,-2,-9,-16,7,36,7,9407
-0.709112,-0.36885,1.68793,0.6875,-137.625,111.063,1.01904,0.316895,0.0214844,17,13,14,50,-8,-9,-23,-29,9424
-0.735573,-0.387278,1.76918,4.0625,-174.5,137.5,0.86377,0.20166,0.327148,-25,-28,-39,-39,-6,-6,7,10,9441
-0.757669,-0.404863,1.85892,19.5625,-195.813,151.5,0.790527,0.484863,0.933594,-25,-28,-39,-39,-6,-6,7,10,9459
-0.784567,-0.417522,1.96633,46.0625,-222.813,176.938,0.697754,0.936035,1.75684,27,20,-8,2,19,6,-25,14,9476
-0.784567,-0.417522,1.96633,46.0625,-222.813,176.938,0.697754,0.936035,1.75684,10,-10,16,49,2,-8,-21,-16,9492
-0.811427,-0.428535,2.09217,71,-258.063,207.375,0.5625,1.09619,2.53711,-15,-11,34,19,-3,3,34,-12,9509
-0.840043,-0.443099,2.23774,94.1875,-306.438,226.125,0.528809,1.22168,2.93115,-23,39,34,38,-8,2,-31,-16,9526
-0.938807,-0.435042,2.6096,10.875,-187.125,180.625,0.588379,1.21484,2.34521,-23,-17,4,-1,14,-13,-30,2,9585
-0.957782,-0.424599,2.69238,44.375,-157.563,150.063,0.0859375,1.10596,2.01416,-3,4,7,32,14,4,42,5,9603
-0.968319,-0.408891,2.76398,52.6875,-128.563,144.25,-0.10791,1.05322,1.49316,1,-6,-11,68,21,-8,3,-4,9620
-0.974427,-0.389063,2.8232,28.5625,-107.813,134.375,-0.313965,0.616699,1.12695,-5,11,1,72,-7,-3,20,17,9637
-0.975755,-0.368713,2.87805,40.9375,-99.4375,123.125,-0.719727,0.411621,0.726074,-17,-13,17,-17,-44,-10,-42,11,9654
-0.975755,-0.368713,2.87805,40.9375,-99.4375,123.125,-0.719727,0.411621,0.726074,13,0,-8,23,26,8,36,10,9672
-0.969585,-0.347895,2.92285,56.25,-76.25,105.813,-0.876465,0.169434,0.396484,-2,-2,6,24,0,6,-7,1,9689
-0.959474,-0.311725,2.95097,44.125,-43.1875,78.1875,-0.975586,0.0878906,0.161621,-4,-1,-13,-31,-4,4,2,-18,9706
-0.956025,-0.268778,2.96292,19.4375,-4.0625,51.125,-1.23975,-0.0688477,0.0600586,-15,2,21,3,2,5,-16,14,9724
-0.949203,-0.222716,2.96234,24.0625,21.0625,25.0625,-1.43945,-0.216309,0.0620117,5,-4,-13,-22,-2,-9,-20,-19,9741
-0.935081,-0.182458,2.94706,33.5,44.25,-13.0625,-1.43262,-0.224121,0.117188,27,11,5,-10,5,2,3,-12,9758
-0.924307,-0.152193,2.91139,7.5625,76.25,-64.5625,-1.31934,-0.187012,0.227539,-20,-52,-45,-38,-4,0,-19,-15,9776
-0.915576,-0.158133,2.86018,-4.5625,92.125,-116.625,-1.12061,-0.0639648,0.515625,30,40,-18,-14,5,5,-6,2,9793
-0.915576,-0.158133,2.86018,-4.5625,92.125,-116.625,-1.12061,-0.0639648,0.515625,-3,-4,2,51,-5,3,-31,-33,9811
-0.869082,-0.20448,2.71816,24.25,117.063,-209,-0.685547,0.816406,1.25928,-23,-24,-83,-52,-7,-23,-92,-48,9827
-0.869082,-0.20448,2.71816,24.25,117.063,-209,-0.685547,0.816406,1.25928,12,-52,107,-111,-7,-17,54,25,9844
-0.819773,-0.387369,2.02244,-142.5,185.875,-242.813,0.758789,1.65479,1.9209,-28,4,-2,46,-4,10,-34,-8,9947
-0.819773,-0.387369,2.02244,-142.5,185.875,-242.813,0.758789,1.65479,1.9209,13,-26,-24,19,-15,-1,-5,13,9965
-0.827572,-0.402746,1.93284,-121.313,144.188,-193.5,0.780273,1.03711,1.21338,-11,15,9,26,-4,14,7,-62,9982
-0.821373,-0.418114,1.85554,-84.9375,123.313,-156.75,0.765625,0.644043,0.681152,-11,0,13,124,27,-19,-42,-47,9999
-0.813598,-0.430475,1.79236,-60.1875,102.063,-127.188,0.719238,0.439453,0.27832,13,2,10,4,4,6,40,31,10016
-0.805919,-0.452888,1.74402,-46.875,79.125,-91.8125,0.733398,0.280273,-0.0258789,-21,-10,0,-8,17,5,33,37,10033
-0.805919,-0.452888,1.74402,-46.875,79.125,-91.8125,0.733398,0.280273,-0.0258789,54,-37,-25,-106,-27,-12,-7,-9,10051
-0.805032,-0.497177,1.70093,-12.375,23.125,-20.8125,0.855957,0.177246,-0.360352,-24,7,8,-79,-7,13,31,17,10068
-0.805032,-0.497177,1.70093,-12.375,23.125,-20.8125,0.855957,0.177246,-0.360352,0,1,10,0,26,6,-15,2,10085
-0.815628,-0.520163,1.71281,2.875,-10.5625,18.25,0.976074,0.0927734,-0.475098,-8,-2,-7,-76,-15,-5,21,28,10103
-0.837019,-0.542262,1.74277,2.5625,-38.4375,49.625,1.03369,0.00878906,-0.489258,36,6,-8,-41,-4,-8,2,20,10120
-0.859748,-0.564462,1.78331,11.3125,-60.4375,66.8125,1.0625,0.0439453,-0.410156,23,2,3,10,7,-7,-47,1,10138
-0.879371,-0.586,1.83677,27.0625,-90.875,91.75,1.03223,0.261719,-0.255371,-28,10,1,-61,-25,-2,-14,-71,10156
-0.905204,-0.585803,1.91064,41.25,-125.438,126.938,1.12695,0.321289,-0.14209,-22,-21,-2,-21,-56,-12,7,32,10173
-0.905204,-0.585803,1.91064,41.25,-125.438,126.938,1.12695,0.321289,-0.14209,34,31,32,50,14,-5,-12,53,10189
-0.937568,-0.580215,1.99211,29.1875,-137.875,147.563,1.13232,0.405273,0.206055,-44,-4,13,0,-28,-10,2,32,10206
-1.03166,-0.524148,2.32506,133,-244.5,229.875,0.740234,1.38818,2.34814,3,5,43,-30,17,14,-72,-74,10265
-1.04387,-0.493677,2.46949,167.125,-267.313,259.313,0.859863,1.75098,2.78418,-9,-4,-60,5,7,-10,-10,-12,10283
-1.0617,-0.460101,2.60949,133.313,-262.313,260.125,1.09033,1.6792,2.75684,-4,4,34,-5,-1,5,86,4,10299
-1.08738,-0.430791,2.71702,59.0625,-205,206.063,1.04053,1.43506,2.5,-4,4,34,-5,-1,5,86,4,10316
-1.08738,-0.430791,2.71702,59.0625,-205,206.063,1.04053,1.43506,2.5,6,-12,-17,65,-7,-2,47,-8,10333
-1.1084,-0.410046,2.79699,33.25,-159.375,148.125,0.745605,1.14551,2.22607,29,-1,45,122,29,11,36,-15,10350
-1.1192,-0.395988,2.86036,40.375,-131.938,109.75,0.236816,1.14941,1.87451,-9,-8,-7,109,7,14,60,15,10368
-1.1318,-0.382011,2.91668,24.9375,-117.5,100.625,-0.175293,0.959961,1.37988,17,13,7,122,7,-6,-27,-9,10385
-1.13851,-0.365782,2.96403,14.125,-103,93.5,-0.287109,0.412109,0.935059,2,-28,4,127,4,5,-42,-1,10402
-1.12713,-0.345027,2.99894,25.375,-86,74.1875,-0.415039,0.251953,0.616211,0,6,-5,-46,0,12,-35,20,10419
-1.11806,-0.324005,3.02571,21.875,-64.5625,56.4375,-0.541992,0.116211,0.448242,14,16,14,-92,0,4,-27,25,10435
-1.11274,-0.295011,3.05005,19.375,-52.875,55.75,-0.808105,-0.00830078,0.3125,18,14,6,-121,-4,22,-45,-7,10452
-1.11274,-0.295011,3.05005,19.375,-52.875,55.75,-0.808105,-0.00830078,0.3125,-16,-24,5,-54,-6,-13,56,2,10470
-1.10685,-0.235414,3.06681,11.125,4.1875,8,-1.06006,-0.266602,0.0463867,2,2,3,-54,-13,3,-48,-25,10488
-1.10685,-0.235414,3.06681,11.125,4.1875,8,-1.06006,-0.266602,0.0463867,-49,-35,-7,9,12,6,-9,4,10506
-1.10955,-0.204171,3.05447,-8.75,30.875,-19.1875,-1.31592,-0.320801,0.0390625,-4,-8,-11,-15,15,4,-7,15,10524
-1.07401,-0.286391,2.7827,-24.1875,153.313,-208.938,-0.42041,1.35059,1.76904,17,14,2,13,9,-2,22,9,10633
-1.05513,-0.331137,2.68612,-30,168.813,-240,0.398438,1.89209,2.6792,-2,-21,-78,-109,-11,-6,-4,-10,10650
-1.03159,-0.410582,2.46595,-102.563,198.063,-246,1.4873,2.49707,3.14111,8,-3,-69,-86,-34,-5,36,2,10667
-1.03159,-0.410582,2.46595,-102.563,198.063,-246,1.4873,2.49707,3.14111,-8,-19,0,106,-4,-14,62,-2,10684
-1.03781,-0.444078,2.35045,-155.438,210.375,-236.625,1.48828,1.87549,2.46533,9,-12,29,98,0,-23,39,35,10701
-1.04312,-0.474501,2.23485,-161.875,212.25,-225.438,1.13135,1.29346,1.86865,-2,0,30,72,-40,-36,-35,-8,10718
-1.04148,-0.501221,2.1207,-148.938,211.063,-212.125,0.855469,1.02197,1.50928,-13,-22,-23,27,13,16,-65,-14,10735
-1.04148,-0.501221,2.1207,-148.938,211.063,-212.125,0.855469,1.02197,1.50928,-2,-1,-5,67,22,12,12,3,10751
-1.03311,-0.527827,2.01851,-138.938,177.438,-180.438,0.60498,0.746582,1.03418,-24,-1,0,127,-3,7,7,-29,10769
-1.02847,-0.548283,1.94148,-110.938,132.188,-135.625,0.569336,0.539063,0.591797,0,8,-7,89,-19,5,15,15,10786
-1.02356,-0.580025,1.88626,-89,84.75,-95.625,0.687012,0.462891,0.106445,-21,-11,-7,113,4,-8,-31,-16,10803
-1.03425,-0.605983,1.85234,-84.6875,57.4375,-60.625,0.615723,0.387695,-0.212891,14,6,-3,127,6,7,28,24,10820
-1.03425,-0.605983,1.85234,-84.6875,57.4375,-60.625,0.615723,0.387695,-0.212891,-9,-12,10,-58,-21,-4,3,33,10837
-1.05316,-0.625177,1.83916,-67.75,30.1875,-21.25,0.600586,0.327148,-0.354004,-31,6,-5,-118,-17,6,-35,-12,10854
-1.07487,-0.644654,1.8444,-37.375,5,9.6875,0.867188,0.259277,-0.469727,-2,-18,-3,-128,5,-6,-9,-22,10871
-1.09277,-0.668396,1.8642,5.875,-16.5625,27.0625,1.10986,0.29541,-0.632324,-85,-23,-11,-128,-9,-7,11,-8,10888
-1.2012,-0.588335,2.18926,90.5625,-168.563,184.125,0.612305,0.702637,1.09961,-4,-17,74,-82,-27,-12,-12,-28,10994
-1.23006,-0.543237,2.30978,102.063,-228.75,222.438,0.687012,0.962891,1.91846,-46,15,68,-45,6,-13,10,17,11011
-1.23006,-0.543237,2.30978,102.063,-228.75,222.438,0.687012,0.962891,1.91846,-41,-15,-128,-106,-61,-1,-6,11,11028
-1.25413,-0.491186,2.44438,122.375,-269.5,249.563,1.0752,1.03369,2.3877,27,18,-75,98,14,4,8,1,11045
-1.26593,-0.441148,2.57346,132.375,-271.438,237.625,1.30273,1.39355,2.93994,20,29,-69,-97,12,12,84,35,11061
-1.2697,-0.402231,2.68073,115.188,-234.563,190.125,1.39307,1.25146,2.56787,30,11,-7,-52,-1,1,-13,-26,11078
-1.28557,-0.369033,2.7613,41.125,-177.313,152.75,1.05811,1.39746,2.27197,0,-56,-2,119,-14,-16,-30,7,11095
-1.30964,-0.34127,2.8284,-1.9375,-152.375,125.125,0.408203,1.02539,2.05957,-22,3,35,104,8,8,3,11,11112
-1.30964,-0.34127,2.8284,-1.9375,-152.375,125.125,0.408203,1.02539,2.05957,-2,5,17,127,-9,-6,7,-3,11128
-1.32261,-0.316644,2.89143,21.0625,-147.563,111.5,-0.108398,0.975098,1.69873,-4,-10,6,51,2,2,26,-6,11146
-1.32405,-0.292831,2.94849,21.875,-142.313,103.063,-0.253418,0.702148,1.2793,-19,14,8,-44,6,-3,22,12,11162
-1.32271,-0.269358,3.00112,28.25,-130.625,95.375,-0.429688,0.450684,0.975098,14,13,14,-67,-2,9,5,-1,11179
-1.31839,-0.243765,3.0502,36.9375,-119.438,93.9375,-0.707031,0.237305,0.660645,9,4,12,-15,7,-3,-11,13,11196
-1.31839,-0.243765,3.0502,36.9375,-119.438,93.9375,-0.707031,0.237305,0.660645,27,14,4,8,6,-9,-1,1,11212
-1.30821,-0.214195,3.09569,51.5625,-106.875,99.5625,-0.891113,-0.0327148,0.466797,-21,4,8,-6,-3,-2,-11,-16,11229
-1.28834,-0.168203,3.12926,55.9375,-77.0625,88.4375,-0.946777,-0.137207,0.353027,7,-33,-17,-33,-14,-4,56,-10,11247
-1.23857,-0.0825973,3.06676,-24.9375,110.313,-101.25,-1.07275,-0.152344,0.395996,-12,9,-1,10,10,5,4,21,11330
-1.24207,-0.112134,3.00786,-35.9375,125.063,-149.688,-0.933594,-0.0483398,0.567383,0,31,18,-16,-5,6,28,13,11347
-1.23773,-0.155295,2.93824,-29.0625,141.625,-190.625,-0.651367,0.196289,0.822266,-50,-3,-15,20,-1,7,-3,24,11364
-1.23386,-0.212771,2.85638,-31.625,163.688,-231.563,-0.319824,0.911133,1.52979,20,-9,10,64,5,16,-16,15,11381
-1.23386,-0.212771,2.85638,-31.625,163.688,-231.563,-0.319824,0.911133,1.52979,-5,-26,-41,-2,5,-21,-10,-8,11399
-1.25768,-0.332618,2.6849,-140.438,166.25,-235.5,0.785645,2.36865,3.33887,7,9,50,-62,-13,-2,-39,-6,11416
-1.25768,-0.332618,2.6849,-140.438,166.25,-235.5,0.785645,2.36865,3.33887,-1,-12,-16,-49,-18,-2,-3,-7,11434
-1.30165,-0.377147,2.61346,-197.375,147.125,-177.438,1.89014,1.69482,2.84131,18,21,-12,-91,-24,1,36,13,11450
-1.32075,-0.439608,2.52478,-155.813,179.875,-233.125,1.58691,1.24658,2.40869,-28,-1,-12,-22,2,2,125,-5,11467
-1.32632,-0.498417,2.43214,-135.813,188.563,-221.125,1.03369,1.48877,1.96582,24,0,3,16,11,8,-23,8,11484
-1.32632,-0.498417,2.43214,-135.813,188.563,-221.125,1.03369,1.48877,1.96582,-5,-18,-17,-4,-9,-6,-40,-28,11501
-1.34172,-0.578816,2.25953,-137.375,169.313,-141.313,0.640625,1.09619,1.21631,10,0,-8,8,-15,1,5,-11,11518
-1.32429,-0.608277,2.18876,-74.875,140.25,-103.75,0.84082,0.626465,0.704102,16,-12,0,22,0,1,-39,-4,11535
-1.29958,-0.637095,2.12697,-37.25,118.125,-101.75,0.735352,0.486816,0.24707,-9,6,-6,-3,11,0,43,11,11552
-1.29958,-0.637095,2.12697,-37.25,118.125,-101.75,0.735352,0.486816,0.24707,-21,-11,-5,-20,-8,-8,18,13,11570
-1.27417,-0.657207,2.07458,-17.75,102.375,-76.625,0.572754,0.450684,-0.117188,-3,6,7,-40,3,9,-15,4,11587
-1.25129,-0.720884,1.99002,29.875,40,21.5,0.916504,0.130371,-0.580078,10,-1,-12,0,0,-2,15,3,11649
-1.25129,-0.720884,1.99002,29.875,40,21.5,0.916504,0.130371,-0.580078,19,12,7,16,-2,0,-33,1,11665
-1.25345,-0.726904,1.99446,15.75,18.5,49.5,0.958984,0.341797,-0.379395,19,-3,16,61,-6,-11,-47,-10,11682
-1.26889,-0.723072,2.01881,2.375,-24.5625,93.5625,0.965332,0.418945,-0.15332,18,5,0,-11,-6,4,15,6,11699
-1.26889,-0.723072,2.01881,2.375,-24.5625,93.5625,0.965332,0.418945,-0.15332,-23,-14,-22,-29,2,-3,7,-2,11716
-1.29616,-0.690434,2.06952,14.625,-76.1875,136.875,1.06592,0.220215,0.0322266,-39,-14,49,-24,9,1,5,-11,11733
-1.32447,-0.656791,2.13439,26.375,-117.625,147.5,1.07129,0.287109,0.521973,-39,-14,49,-24,9,1,5,-11,11750
-1.32447,-0.656791,2.13439,26.375,-117.625,147.5,1.07129,0.287109,0.521973,8,-40,-36,-41,-21,-2,-4,8,11768
-1.35471,-0.617059,2.2202,59.875,-166.563,156.313,0.958984,0.788574,1.39697,91,-51,-9,-56,-11,-14,-22,-8,11786
-1.38552,-0.569321,2.33325,92.875,-236.313,187.188,0.593262,1.14502,2.12207,-11,31,-64,31,-5,4,21,-25,11802
-1.42009,-0.455455,2.58837,132.125,-295.813,212.063,0.717773,1.22119,2.80859,7,-7,-51,-16,-5,11,59,24,11820
-1.42758,-0.406288,2.7037,116.563,-277,183.25,0.990234,1.1499,2.59375,33,18,-1,-64,-5,0,-10,2,11837
-1.43843,-0.365128,2.79074,62.75,-212.688,148.5,0.839355,1.31055,2.30664,11,5,20,-62,-20,5,-48,-10,11854
-1.43843,-0.365128,2.79074,62.75,-212.688,148.5,0.839355,1.31055,2.30664,2,5,5,30,1,-26,30,6,11871
-1.44375,-0.329922,2.8606,53.0625,-173.563,124.438,0.487793,1.03027,2.04297,-16,1,5,20,11,-9,32,17,11888
-1.43606,-0.298555,2.91589,71,-137.75,108.75,0.043457,0.96875,1.63232,65,8,10,63,-11,12,4,-5,11905
-1.34877,-0.088492,3.09973,67.0625,-57,94.5,-0.908691,-0.162109,0.325195,-42,27,-4,-14,8,21,-1,-12,11994
-1.33252,-0.0409758,3.10982,41.4375,-14.75,65,-1.0957,-0.219238,0.158691,-25,-13,1,6,-34,-25,-21,11,12012
-1.33252,-0.0409758,3.10982,41.4375,-14.75,65,-1.0957,-0.219238,0.158691,25,15,6,9,25,0,62,-18,12029
-1.32918,-0.000916012,3.104,5.9375,22.25,21.875,-1.27295,-0.253418,0.105957,-3,-19,4,20,21,-5,44,21,12046
-1.33515,0.0221792,3.08354,-22.75,53,-31.25,-1.22119,-0.294434,0.153809,-26,-5,4,5,0,-6,-35,-9,12063
-1.33916,0.02934,3.05172,-23.375,75,-80.125,-1.18164,-0.234863,0.248535,-4,-13,-15,-6,-6,6,-6,25,12080
-1.34294,0.0020698,3.01265,-15.25,87.5,-118,-0.983887,-0.0244141,0.350586,43,46,15,-4,4,12,-9,25,12097
-1.34294,0.0020698,3.01265,-15.25,87.5,-118,-0.983887,-0.0244141,0.350586,17,-23,-16,-73,-26,-6,14,-30,12114
-1.35095,-0.0849373,2.9222,-23.5,98,-167.688,-0.434082,0.806641,1.4375,15,7,22,64,34,17,-35,33,12131
-1.35095,-0.0849373,2.9222,-23.5,98,-167.688,-0.434082,0.806641,1.4375,2,-42,-29,19,-2,-26,53,30,12149
-1.35348,-0.139372,2.87477,-22.6875,97.8125,-181.813,0.165527,1.64404,2.29492,-9,-12,-98,-28,17,9,23,-1,12166
-1.36211,-0.20058,2.81289,-54.875,133.688,-208.313,1.15332,1.87646,2.81006,61,29,8,-68,1,10,10,1,12182
-1.37537,-0.26826,2.74092,-85.5625,158,-230.313,1.33203,2.15332,2.90625,-3,9,-17,-60,-21,-5,-61,2,12199
-1.39822,-0.335919,2.65832,-136.313,186.75,-232.188,1.31641,2.15088,2.5625,-18,-10,-30,-119,-13,-16,35,-15,12216
-1.42745,-0.399655,2.56983,-174.938,205.375,-217.625,1.13428,1.6792,2.25244,5,-32,-25,53,-30,-13,5,-32,12234
-1.42745,-0.399655,2.56983,-174.938,205.375,-217.625,1.13428,1.6792,2.25244,4,-26,-8,36,24,17,-48,-57,12251
-1.41391,-0.543947,2.32154,-80.875,180.875,-142.938,0.937012,0.682129,0.612793,39,13,-3,96,13,16,6,14,12310
-1.39714,-0.583486,2.24958,-67.125,152.75,-123.938,0.78418,0.556152,0.30127,-18,0,-10,46,0,-13,-34,-1,12327
-1.38128,-0.612543,2.19983,-34.5625,103.625,-88.3125,0.805664,0.379883,-0.0883789,-19,9,-9,-95,2,2,23,4,12344
-1.37486,-0.652788,2.17203,-11.6875,65.25,-67.3125,0.848633,0.302246,-0.354004,24,-10,3,-128,8,1,-11,5,12361
-1.37749,-0.687317,2.16282,2.125,32.9375,-45.125,0.895508,0.209961,-0.529785,-15,6,11,-87,3,2,-47,-7,12378
-1.38199,-0.718936,2.16967,31.25,6.6875,-27.3125,1.05273,0.0961914,-0.621094,14,15,-4,-22,-14,5,-9,8,12395
-1.38199,-0.718936,2.16967,31.25,6.6875,-27.3125,1.05273,0.0961914,-0.621094,57,4,6,7,37,-6,33,9,12412
-1.3908,-0.751158,2.18817,39.625,-17.1875,-22,1.13818,0.081543,-0.603516,36,8,8,16,8,-6,7,9,12430
-1.40867,-0.778122,2.21712,27.1875,-41.5625,-8.5625,1.00537,0.161621,-0.460449,-27,-19,-5,-10,4,0,86,6,12448
-1.43704,-0.792475,2.26786,35.5625,-85.125,30.9375,0.918945,0.230469,-0.342285,-33,-12,-13,-41,-11,-6,11,-14,12465
-1.47306,-0.775293,2.33531,34.875,-127.313,77.8125,0.873535,0.219727,-0.193848,-26,-26,4,28,10,2,-7,-60,12481
-1.47306,-0.775293,2.33531,34.875,-127.313,77.8125,0.873535,0.219727,-0.193848,7,4,-19,-32,-8,2,-5,-12,12499
-1.52304,-0.742542,2.41701,14.3125,-164.875,120.125,0.810547,0.335938,0.255859,8,24,20,70,-12,-10,-4,5,12516
-1.56845,-0.688121,2.51488,53.625,-208.125,161,0.854492,0.606445,1.09229,-47,40,121,81,71,-2,-26,-15,12533
-1.58712,-0.616092,2.62617,140.438,-255.313,204.625,0.959473,1.15674,1.97949,-31,37,3,-107,-4,16,-110,-32,12550
-1.58043,-0.532887,2.73141,183.125,-256.688,235,1.29395,1.5625,2.53809,-27,-48,-6,-42,-15,-9,37,-1,12567
-1.5809,-0.360216,2.90184,64.3125,-199.688,235.25,1.34766,1.41113,2.55029,17,-16,-11,-25,-29,5,69,19,12615
-1.58256,-0.299773,2.95383,43.5,-142.813,171.563,1.05029,1.14746,2.31006,-49,-16,3,73,-26,2,-3,-6,12633
-1.57197,-0.256384,2.99322,61,-109.438,123.688,0.525879,1.17432,2.05615,-49,-16,3,73,-26,2,-3,-6,12651
-1.55898,-0.216679,3.02502,58.5,-88.125,114,-0.034668,1.10205,1.60254,21,4,-20,114,-11,14,36,-13,12669
-1.54559,-0.172501,3.0504,34.5,-72.5625,123.688,-0.361328,0.664551,1.05469,-20,-2,-9,122,11,-13,-59,-12,12685
-1.53011,-0.131359,3.07125,40.6875,-57.4375,111.063,-0.529785,0.269043,0.757813,6,3,0,-67,7,-6,-50,8,12702
-1.49888,-0.084301,3.0872,60.875,-44,88.375,-0.72168,0.120117,0.484863,58,8,-5,-105,-12,6,31,-5,12719
-1.47439,-0.0408859,3.09675,54.0625,-22.6875,71.375,-0.803711,0.0273438,0.265625,3,6,7,-30,4,2,18,8,12737
-1.46571,0.0011057,3.09757,18.3125,3.25,55.75,-0.935547,-0.102051,0.103516,3,2,-2,-48,4,-22,-71,-12,12755
-1.46571,0.0011057,3.09757,18.3125,3.25,55.75,-0.935547,-0.102051,0.103516,9,-6,-13,-68,-7,3,105,7,12772
-1.4682,0.0398085,3.09038,-6.3125,23.9375,32.25,-1.11719,-0.366211,0.027832,-14,-6,-6,-20,-2,1,23,-7,12789
-1.47313,0.0662605,3.07918,-10.5625,31.3125,-6.9375,-1.17383,-0.503906,0.0146484,-2,-16,0,-2,5,3,-56,2,12806
-1.47243,0.0752331,3.06649,2.5,31.9375,-48.8125,-1.05859,-0.431641,0.0678711,52,11,-21,-34,-1,-4,-22,3,12823
-1.46845,0.0706896,3.05559,-3.3125,24.6875,-77.875,-0.911621,-0.14502,0.261719,-72,-26,-10,34,21,-6,-25,-1,12841
-1.47606,0.0417074,3.03946,-28.0625,36.8125,-100.625,-0.782227,0.140137,0.477051,-23,-36,-31,-64,-21,-11,-87,-41,12858
-1.48563,0.000621341,3.01748,-41.125,51.4375,-133.313,-0.620605,0.334473,0.855957,-2,21,-3,66,0,-10,-39,-33,12875
-1.58077,-0.290116,2.80567,-194.875,186.813,-214.875,1.62354,2.56152,3.12891,-12,-45,-17,127,20,7,59,0,12979
-1.61571,-0.358361,2.73338,-166.188,201.938,-190.25,1.57861,1.87988,2.30908,13,-9,-2,87,-4,-8,70,-3,12996
-1.62556,-0.423406,2.65486,-114.25,217.125,-175.813,1.29248,1.53906,1.74121,-15,-8,13,26,-19,5,31,-7,13013
-1.62556,-0.423406,2.65486,-114.25,217.125,-175.813,1.29248,1.53906,1.74121,49,8,-4,71,7,10,24,22,13029
-1.60197,-0.537106,2.48877,-77.625,208.938,-134.688,0.655273,0.710449,0.962402,-13,5,8,-2,6,15,-1,13,13046
-1.58135,-0.58024,2.41584,-61.375,173.313,-106.25,0.621582,0.484863,0.684082,0,16,11,2,-3,1,-69,11,13063
-1.56529,-0.611703,2.36009,-48.5625,129.125,-76.4375,0.661621,0.363281,0.362305,-10,-7,4,33,-1,-12,-22,-7,13080
-1.55688,-0.647157,2.3198,-43,93.3125,-59.0625,0.669434,0.162598,-0.00683594,47,1,9,101,1,7,-2,8,13098
-1.56142,-0.677299,2.2923,-49.5625,70.9375,-44.125,0.730469,0.0786133,-0.205078,-21,3,5,-128,-5,15,15,19,13114
-1.56142,-0.677299,2.2923,-49.5625,70.9375,-44.125,0.730469,0.0786133,-0.205078,3,6,10,-47,14,-5,-44,25,13131
-1.57512,-0.702214,2.2774,-50.625,45.875,-30.1875,0.814453,-0.0405273,-0.291504,-16,-8,-12,-105,-17,-3,-49,-4,13148
-1.59565,-0.723884,2.28011,-30.3125,14.8125,-16.875,0.95752,-0.0981445,-0.44873,18,2,2,-72,-6,-11,-58,-19,13165
-1.61978,-0.744622,2.29939,-0.5625,-12.4375,-4.875,1.12158,-0.0366211,-0.619629,-4,-8,5,-42,17,-3,10,-14,13182
-1.64871,-0.762387,2.33175,11.875,-39.5,17.375,1.14111,0.308594,-0.607422,-13,-5,-7,-6,-14,4,28,-15,13199
-1.64871,-0.762387,2.33175,11.875,-39.5,17.375,1.14111,0.308594,-0.607422,-56,-4,-13,-2,16,-3,-2,-17,13216
-1.67955,-0.766557,2.37202,17.8125,-63.875,58.9375,1.13379,0.452637,-0.5,-17,-2,-10,-20,-12,1,86,-22,13232
-1.77188,-0.640985,2.53133,38.75,-185.813,160.813,0.782715,0.770508,1.15234,10,-2,-31,-42,-6,-5,-30,12,13281
-1.77188,-0.640985,2.53133,38.75,-185.813,160.813,0.782715,0.770508,1.15234,-20,2,14,23,10,0,-4,-11,13298
-1.76957,-0.460887,2.71131,166.75,-285.438,218.688,1.17969,1.2998,2.7793,24,15,-38,9,5,0,-20,-14,13315
-1.76957,-0.460887,2.71131,166.75,-285.438,218.688,1.17969,1.2998,2.7793,18,8,-3,-7,10,14,19,10,13332
-1.7357,-0.371859,2.79238,191.125,-255.563,212.5,1.4917,1.69727,3.09521,-18,-19,-29,55,-12,-23,-29,2,13349
-1.71446,-0.300392,2.85513,120,-199.375,176.188,1.35352,1.61523,2.69043,-20,15,-13,81,24,-2,-9,-5,13366
-1.70985,-0.248762,2.9008,48.875,-145.688,128.688,0.743652,1.06201,2.31006,14,-4,33,8,-7,1,60,4,13383
-1.70985,-0.248762,2.9008,48.875,-145.688,128.688,0.743652,1.06201,2.31006,-10,-8,10,-17,-7,3,-1,3,13401
-1.69777,-0.21041,2.9355,57,-110.688,96,0.209473,0.896484,1.77393,-1,5,31,24,1,-7,-48,3,13417
-1.65523,-0.131808,2.98579,33.5625,-81.5625,93.6875,-0.404297,0.584473,1.01123,4,-5,9,-37,-4,6,-103,-24,13434
-1.65523,-0.131808,2.98579,33.5625,-81.5625,93.6875,-0.404297,0.584473,1.01123,-40,-19,0,-2,-16,-20,-13,-3,13450
-1.62819,-0.0822986,3.00712,37.375,-73.125,99.375,-0.57959,0.354004,0.713867,-18,11,11,-10,-2,-1,-4,-17,13466
-1.61358,-0.0396101,3.02467,36.875,-56.0625,107.688,-0.696289,0.214355,0.46875,16,11,14,-13,12,-2,-32,10,13484
-1.59892,0.00665994,3.03735,37.3125,-40.6875,116.25,-0.878906,-0.00634766,0.334473,17,-5,-2,-22,-10,0,-12,-9,13501
-1.57887,0.0486974,3.04413,53,-21.3125,103.438,-0.965332,-0.259277,0.210449,-37,3,-1,-3,-13,-6,-26,-22,13518
-1.57887,0.0486974,3.04413,53,-21.3125,103.438,-0.965332,-0.259277,0.210449,0,13,-4,-26,-39,0,10,13,13535
-1.56581,0.134277,2.97216,-28.75,83.75,-128.125,-1.13965,0.119141,0.462891,21,6,36,-5,11,9,28,17,13622
-1.58353,0.0828849,2.94045,-52.75,92.25,-164.063,-0.981445,0.420898,0.669434,-1,-15,11,-15,-7,6,-72,3,13639
-1.58353,0.0828849,2.94045,-52.75,92.25,-164.063,-0.981445,0.420898,0.669434,-24,-29,-3,-58,-38,-7,-35,-7,13656
-1.61211,0.0133135,2.89923,-76.1875,123.5,-196.25,-0.45752,0.817383,1.28516,-26,-31,-83,18,19,14,56,-5,13673
-1.62951,-0.0663722,2.85369,-53,141.5,-221.625,-0.0302734,1.68408,2.33691,1,12,55,42,16,8,-21,17,13692
-1.62951,-0.0663722,2.85369,-53,141.5,-221.625,-0.0302734,1.68408,2.33691,-15,29,61,2,9,2,-36,-4,13709
-1.66653,-0.243192,2.76043,-98.625,163.563,-246.625,1.41797,2.39502,3.24365,17,8,5,-2,-23,-3,12,-10,13726
-1.70365,-0.328459,2.70889,-148.063,168.875,-226.5,1.54883,2.12158,2.66846,23,6,-3,64,2,-1,67,6,13742
-1.73337,-0.407372,2.65224,-143.813,183.25,-201.563,1.31104,1.56396,2.16064,8,10,14,5,-13,0,17,-14,13759
-1.73337,-0.407372,2.65224,-143.813,183.25,-201.563,1.31104,1.56396,2.16064,11,2,18,19,-6,-5,18,9,13776
-1.74951,-0.480185,2.59674,-114.625,177,-181.563,1.08057,1.11768,1.54932,11,2,18,19,-6,-5,18,9,13793
-1.75304,-0.546968,2.54224,-86.625,168.438,-163.813,0.779297,0.818848,1.08838,11,2,-24,-11,-5,-8,18,-3,13810
-1.75073,-0.607068,2.49006,-82.75,146.375,-131.125,0.65918,0.634766,0.658203,6,-9,-4,-12,2,0,38,8,13828
-1.75081,-0.653753,2.44609,-78,118.938,-99.625,0.668457,0.438965,0.354004,10,12,3,-10,9,-10,-24,5,13844
-1.75182,-0.701424,2.41651,-52.75,83.5,-74.75,0.713867,0.234375,-0.00439453,-8,-1,-11,-7,5,3,20,-4,13861
-1.75622,-0.738749,2.40436,-18.0625,52.5625,-54.9375,0.738281,0.179688,-0.305664,17,-4,-2,20,3,-10,-2,2,13877
-1.83641,-0.774964,2.46161,10.3125,-47.875,47.0625,0.98877,0.168945,-0.476074,2,3,-1,-4,-7,5,9,-11,13981
-1.86224,-0.763452,2.49538,12.8125,-74.9375,76.875,0.959473,0.380859,-0.308105,-4,-14,-4,-22,-15,-9,-39,-9,13998
-1.88234,-0.715281,2.53092,13.9375,-115.25,126.563,0.975098,0.39502,-0.125,-28,-22,-10,5,-15,6,9,-1,14015
-1.88234,-0.715281,2.53092,13.9375,-115.25,126.563,0.975098,0.39502,-0.125,-63,-40,11,-4,4,-8,-54,-14,14032
-1.91608,-0.573874,2.61724,47.75,-186.25,175.75,1.06787,0.755859,1.29248,-2,1,71,29,-24,-4,37,19,14049
-1.90148,-0.481807,2.67925,131.875,-232.625,198,0.882813,1.21191,2.1167,15,15,-43,-51,-29,-5,-22,21,14066
-1.86197,-0.381178,2.74618,193.5,-254.5,221.438,1.02881,1.36572,2.50928,16,17,8,5,15,1,-5,-4,14084
-1.86197,-0.381178,2.74618,193.5,-254.5,221.438,1.02881,1.36572,2.50928,16,17,8,5,15,1,-5,-4,14101
-1.82353,-0.279462,2.81459,173.375,-257.188,231.063,1.00098,1.65234,2.65967,-20,-5,-43,-10,-7,3,56,34,14120
-1.79972,-0.189909,2.8757,109,-226.938,208.5,1.01074,1.0083,2.40234,10,6,44,47,2,-10,43,2,14138
-1.79972,-0.189909,2.8757,109,-226.938,208.5,1.01074,1.0083,2.40234,-4,-10,-19,-37,-27,-6,89,22,14155
-1.75819,-0.0823215,2.96093,62.625,-127.813,101.688,0.59082,0.871582,1.74023,12,6,-23,-44,-4,7,34,7,14173
-1.74565,-0.0463272,2.98811,41,-94.9375,87.4375,0.163086,0.953125,1.49707,-44,28,1,-18,-26,0,-65,-6,14192
-1.71693,-0.00312192,3.00671,15.875,-71.6875,97.625,-0.231934,0.741211,1.12744,-48,-9,14,-17,-12,1,42,21,14209
-1.70776,0.0363077,3.01762,13.125,-45.8125,101,-0.361328,0.40332,0.79248,6,-1,-1,-31,-10,12,-46,-3,14226
-1.68243,0.0803255,3.0243,32.1875,-28.6875,92.6875,-0.41748,0.296387,0.614258,-18,-38,-16,-26,-9,6,-25,-45,14243
-1.60398,0.210818,3.02204,44.25,20.8125,51.875,-0.962402,-0.11377,0.164551,14,2,5,-25,1,-6,10,0,14311
-1.6001,0.240176,3.00631,12.75,45.5625,10.25,-1.16748,-0.206543,0.105469,-45,-6,-29,-17,16,9,12,-1,14328
-1.59971,0.256764,2.9886,3.125,52.875,-35.4375,-1.34229,-0.349609,0.135742,3,-8,0,-36,0,-23,29,7,14345
-1.58787,0.254978,2.97316,27.5625,49,-83.3125,-1.27197,-0.393066,0.240234,-47,2,-29,-6,-10,-9,18,19,14362
-1.57627,0.213189,2.95307,41.1875,59.0625,-134.938,-0.960449,-0.0415039,0.338379,22,10,-13,37,-16,12,-50,-16,14379
-1.57627,0.213189,2.95307,41.1875,59.0625,-134.938,-0.960449,-0.0415039,0.338379,-15,0,104,43,-5,4,-2,31,14396
-1.57306,0.161331,2.92579,10.375,79.6875,-163.313,-0.837891,0.368164,0.775879,-34,-18,-57,-92,-11,11,17,-31,14414
-1.57871,0.0912475,2.89504,-5.125,88.5625,-200.375,-0.509766,0.957031,1.47266,-21,19,19,-14,-4,5,74,21,14431
-1.58956,0.0158547,2.86397,-26.5,91.75,-215.063,0.274902,1.73779,2.27783,28,13,-11,-81,19,-7,-59,5,14447
-1.61901,-0.0635658,2.82826,-86.875,110.125,-224.25,0.961914,2.02588,2.85498,13,34,96,-4,-8,-2,-62,0,14464
-1.61901,-0.0635658,2.82826,-86.875,110.125,-224.25,0.961914,2.02588,2.85498,-27,-19,-94,-128,-10,11,-23,9,14481
-1.65711,-0.141376,2.79255,-119.625,116.438,-215.688,1.54199,2.4375,2.85107,7,-3,13,14,-1,-1,-17,-5,14498
-1.7054,-0.211557,2.75125,-158.938,138.063,-187.063,1.66211,1.92041,2.21875,12,-11,8,57,20,-10,86,5,14514
-1.74665,-0.28149,2.70448,-151.063,159.75,-178,1.27734,1.25195,1.72217,11,-26,-21,85,-13,-9,44,-15,14533
-1.76791,-0.34798,2.65745,-102.688,161.25,-163.5,1.00684,0.982422,1.26025,52,21,-10,47,13,-8,-15,3,14550
-1.78364,-0.404217,2.61052,-94.5625,155.375,-132.5,0.908691,1.02686,0.897461,3,0,4,98,22,-3,-25,1,14567
-1.81913,-0.544701,2.51637,-49.4375,69.875,-53.0625,0.650391,0.279297,-0.0561523,5,21,18,61,-1,20,-29,1,14628
-1.83147,-0.576298,2.50495,-38.875,48.25,-40.375,0.614746,0.159668,-0.200684,-5,-11,-2,-19,-17,4,-95,-18,14645
-1.84656,-0.599715,2.5032,-26.6875,26.375,-31.375,0.576172,0.0151367,-0.344238,-23,-6,-7,-94,9,1,111,-2,14663
-1.86242,-0.617887,2.51099,-8.125,4.1875,-20.1875,0.657715,-0.0175781,-0.453125,25,-8,1,-98,6,-16,41,29,14680
-1.86242,-0.617887,2.51099,-8.125,4.1875,-20.1875,0.657715,-0.0175781,-0.453125,-5,6,1,-70,-5,-1,-7,6,14697
-1.88466,-0.631324,2.52709,-7.25,-16.4375,-0.75,0.804199,0.100098,-0.527344,44,6,2,15,1,3,-1,9,14715
-1.90988,-0.635498,2.54832,-8.1875,-38.625,25.8125,0.805176,0.247559,-0.451172,16,7,1,-23,13,-3,6,-19,14732
-1.92955,-0.623646,2.57432,9.75,-70.9375,65.75,0.819336,0.274902,-0.333984,-18,-18,10,5,-47,-31,-43,-2,14749
-1.93896,-0.583881,2.60086,19.875,-102.5,99.6875,1.00781,0.208496,-0.193359,-18,-11,-7,-13,2,-2,13,18,14766
-1.94935,-0.53707,2.62902,10.9375,-120.625,117.063,1,0.39502,0.299805,-28,23,3,-13,7,2,-38,-18,14783
-1.95145,-0.466031,2.67149,52.375,-174.688,149.5,0.848145,0.839844,1.28662,25,-9,-17,18,27,10,54,-10,14800
-1.95145,-0.466031,2.67149,52.375,-174.688,149.5,0.848145,0.839844,1.28662,8,30,54,27,16,6,2,16,14817
-1.93408,-0.367562,2.72636,113.5,-236.625,210.688,1.07666,1.13916,1.89746,4,2,-15,-25,-4,1,-57,0,14834
-1.90865,-0.269128,2.78404,124.688,-244.813,210.938,1.37695,1.18457,2.47998,3,15,-20,-46,-8,-7,-61,-5,14851
-1.87019,-0.180724,2.84267,147.563,-235.188,189.438,1.37109,1.27881,2.62402,-3,-4,-33,-57,29,4,9,2,14869
-1.87019,-0.180724,2.84267,147.563,-235.188,189.438,1.37109,1.27881,2.62402,-13,-8,13,40,-22,4,52,0,14886
-1.78942,0.00870915,2.99429,64.4375,-111.188,72.625,0.205078,0.845703,1.43701,20,2,16,47,14,1,64,9,14943
-1.74847,0.0402557,3.02249,51.1875,-95.25,71.75,0.0327148,0.697754,1.09277,10,-2,1,93,14,6,107,5,14961
-1.74847,0.0402557,3.02249,51.1875,-95.25,71.75,0.0327148,0.697754,1.09277,-18,1,-9,5,-1,-12,-12,-13,14978
-1.71844,0.0773202,3.04801,31.25,-83.6875,76.3125,-0.200195,0.5,0.833984,10,3,-1,-57,-21,2,-40,3,14995
-1.66326,0.161584,3.09378,38.0625,-67.75,76.4375,-0.546875,0.0371094,0.515137,10,3,-1,-57,-21,2,-40,3,15013
-1.66326,0.161584,3.09378,38.0625,-67.75,76.4375,-0.546875,0.0371094,0.515137,-9,-2,-1,-39,-23,2,-3,5,15030
-1.63195,0.204918,3.11481,53.6875,-59.9375,69.375,-0.784668,-0.257324,0.360352,-23,-27,-2,-28,1,-4,-28,-9,15048
-1.60486,0.2456,3.12477,59.125,-27.8125,57.0625,-1.01709,-0.645508,0.161133,7,-3,-17,-51,9,16,-31,-8,15065
-1.60486,0.2456,3.12477,59.125,-27.8125,57.0625,-1.01709,-0.645508,0.161133,-6,2,-7,-55,-28,-7,-3,-24,15082
-1.58837,0.328007,3.11916,-6.75,17.5,20.25,-1.57275,-0.587402,0.185547,-28,-29,2,17,26,1,48,-10,15099
-1.58837,0.328007,3.11916,-6.75,17.5,20.25,-1.57275,-0.587402,0.185547,-2,23,9,8,-3,-6,-20,-13,15117
-1.58837,0.328007,3.11916,-6.75,17.5,20.25,-1.57275,-0.587402,0.185547,-16,-14,-14,-36,-3,-1,15,7,15134
-1.60686,0.346741,3.10626,-45,41.5,-80.1875,-1.15918,-0.310059,0.496582,0,3,22,9,16,-5,-41,-4,15151
-1.62023,0.302976,3.08188,-28.6875,76.1875,-132.875,-0.586914,0.234375,0.758301,-41,-41,-31,-53,-9,-7,-58,-36,15169
-1.6429,0.245397,3.04991,-39.875,98.125,-159.438,-0.325684,1.08057,1.47363,-19,-19,-71,-5,8,0,-63,-17,15186
-1.6429,0.245397,3.04991,-39.875,98.125,-159.438,-0.325684,1.08057,1.47363,4,15,9,-65,-26,-2,-12,-2,15203
-1.81618,-0.0521111,2.86044,-95.6875,216.188,-227.188,1.71973,2.00928,2.43213,-44,-25,30,127,-3,2,-40,-2,15281
-1.85282,-0.1406,2.80069,-121.438,230.688,-200.375,1.39209,1.84082,1.87109,12,17,6,27,56,6,10,15,15299
-1.88254,-0.22404,2.73881,-117.125,236.938,-177.875,1.30078,0.999512,1.35449,-22,13,7,40,-3,0,-2,24,15316
-1.88254,-0.22404,2.73881,-117.125,236.938,-177.875,1.30078,0.999512,1.35449,22,-1,-6,-13,5,-6,4,10,15333
-1.88957,-0.382612,2.6227,-53.25,204.563,-143.313,0.856934,0.655762,0.620117,25,12,15,-4,-7,1,-14,15,15350
-1.88633,-0.444724,2.57678,-45.375,164.688,-117.688,0.730957,0.401855,0.266113,-42,-17,-4,37,20,-5,-18,-7,15368
-1.87956,-0.493241,2.54418,-22,118.438,-95,0.685059,0.23584,0.0258789,8,13,1,-8,1,-13,10,24,15385
-1.87956,-0.493241,2.54418,-22,118.438,-95,0.685059,0.23584,0.0258789,11,-1,-1,18,-7,-4,-7,-24,15402
-1.8767,-0.541496,2.52592,-4.4375,77.3125,-67.9375,0.774414,0.172363,-0.169922,-8,1,4,16,26,-4,72,-1,15420
-1.88263,-0.576109,2.52038,-6.3125,39.375,-40.6875,0.871582,0.0463867,-0.318848,-21,3,-7,-77,-4,10,-12,-36,15437
-1.89994,-0.597404,2.52631,-19.125,7.25,-21.5,0.87207,-0.183105,-0.45166,1,-21,-4,4,-20,7,-28,-25,15454
-1.89994,-0.597404,2.52631,-19.125,7.25,-21.5,0.87207,-0.183105,-0.45166,4,16,5,-27,7,-9,51,17,15471
-1.95263,-0.614007,2.57317,-9.5,-58.875,11.5625,0.894043,0.0830078,-0.459473,6,-3,-10,-36,-10,6,-11,-13,15487
-1.95263,-0.614007,2.57317,-9.5,-58.875,11.5625,0.894043,0.0830078,-0.459473,28,10,8,88,23,-4,1,49,15504
-1.9969,-0.552775,2.6499,21.125,-147.5,104.5,0.945801,0.283203,-0.195313,-31,-12,-49,-59,-1,16,-6,-17,15521
-1.9969,-0.552775,2.6499,21.125,-147.5,104.5,0.945801,0.283203,-0.195313,-18,53,22,-17,-2,1,-20,15,15538
-1.89948,-0.102944,2.86146,129.188,-226.688,223.5,1.32031,1.73828,2.85742,-13,-26,8,-21,-35,0,8,-54,15642
-1.89948,-0.102944,2.86146,129.188,-226.688,223.5,1.32031,1.73828,2.85742,9,-2,14,117,1,5,21,17,15659
-1.84304,0.0550395,2.94182,69.0625,-151.313,159.5,1.02539,1.16504,2.21191,-4,13,15,115,16,0,15,-5,15677
-1.82612,0.107528,2.97059,41.875,-118.625,124,0.45166,1.03223,2.00732,4,14,17,120,-2,7,-74,-22,15693
-1.80722,0.154822,2.99588,44.625,-102.75,113.625,-0.165527,0.889648,1.68164,-12,-10,-1,118,-18,4,0,12,15710
-1.77941,0.206287,3.02007,50.625,-93.8125,118.75,-0.48584,0.553223,1.11816,-6,0,6,-60,-3,6,18,15,15727
-1.77941,0.206287,3.02007,50.625,-93.8125,118.75,-0.48584,0.553223,1.11816,4,-17,-2,-128,16,-14,-36,-17,15744
-1.72976,0.300114,3.04472,48.375,-39.125,111.188,-0.645996,0.105957,0.568848,-15,-23,1,-98,0,-2,25,-28,15761
-1.72976,0.300114,3.04472,48.375,-39.125,111.188,-0.645996,0.105957,0.568848,14,13,7,-45,-3,-5,33,14,15778
-1.71479,0.340927,3.04667,33.4375,-18.5625,101.25,-0.875,-0.0712891,0.455078,-9,5,-9,-25,-1,0,47,0,15795
-1.69662,0.394738,3.05216,20.125,-16.9375,91.8125,-1.0166,-0.219727,0.382813,62,29,15,-20,10,16,-3,6,15812
-1.68095,0.431881,3.0575,18.25,-11.75,55.5625,-0.921875,-0.339844,0.291016,-29,-18,5,31,-53,-14,-39,-26,15829
-1.67795,0.452085,3.05731,-4.375,5.5,10.8125,-0.909668,-0.324219,0.169434,-14,-3,-3,-1,-2,-5,-14,-10,15846
-1.67795,0.452085,3.05731,-4.375,5.5,10.8125,-0.909668,-0.324219,0.169434,-50,-15,-11,-17,-5,-14,-102,-14,15863
-1.68798,0.456258,3.05246,-29.6875,20.5625,-40.25,-1.01563,-0.322266,0.0737305,-50,-15,-11,-17,-5,-14,-102,-14,15880
-1.70633,0.441073,3.04207,-43.5,41.25,-98,-1.06006,-0.273438,0.0209961,-12,-13,-10,-15,6,2,14,35,15897
-1.76842,0.258828,2.97792,-34.875,112.25,-198.188,-0.848633,1.16211,0.971191,-11,-2,-82,-21,21,8,12,-8,15954
-1.78028,0.176305,2.94294,-12.125,144,-211.688,-0.0458984,2.0835,2.17383,9,-16,-20,74,35,3,52,8,15972
-1.80606,0.0854145,2.89967,-57.6875,177.438,-227.125,1.39941,2.32813,3.14355,-1,4,-26,-35,5,-17,-17,-27,15989
-1.80606,0.0854145,2.89967,-57.6875,177.438,-227.125,1.39941,2.32813,3.14355,-10,2,-26,-123,51,39,-14,2,16006
-1.86714,-0.08798,2.7846,-82.4375,226.125,-205.75,1.93457,1.8877,2.71484,-1,-21,4,-20,-9,11,72,-27,16023
-1.86714,-0.08798,2.7846,-82.4375,226.125,-205.75,1.93457,1.8877,2.71484,-5,-2,11,127,-24,-14,67,-7,16040
-1.88554,-0.175526,2.72631,-74.6875,233.625,-189.5,1.46777,1.44287,2.20361,-15,-8,-19,104,-20,-20,14,-28,16058
-1.8917,-0.261537,2.66972,-52.875,227.375,-184.625,1.08496,0.933594,1.625,17,14,9,120,16,-5,-58,0,16075
-1.8963,-0.342458,2.61552,-59.1875,214.625,-172.938,0.739258,0.695801,1.22656,17,14,9,120,16,-5,-58,0,16092
-1.90275,-0.420503,2.56577,-83.5,187.813,-155.313,0.704102,0.406738,0.9375,-67,-37,-1,49,23,-11,-34,-83,16109
-1.90275,-0.420503,2.56577,-83.5,187.813,-155.313,0.704102,0.406738,0.9375,17,16,4,-95,0,0,-13,13,16126
-1.92341,-0.54037,2.5164,-52,83.375,-114.5,0.683105,0.213379,0.192383,17,16,4,-95,0,0,-13,13,16144
-1.92341,-0.54037,2.5164,-52,83.375,-114.5,0.683105,0.213379,0.192383,3,-1,-11,-9,6,2,-56,-25,16161
-1.93505,-0.590851,2.51462,-24.6875,45.625,-89.1875,0.737793,0.135742,-0.154297,6,6,-3,-47,-9,15,2,-6,16178
-1.95557,-0.628672,2.52214,-24.6875,23.1875,-65.625,0.718262,0.107422,-0.377441,1,7,1,-26,-23,-12,11,23,16194
-1.98129,-0.652106,2.53524,-26,3.9375,-38.4375,0.672363,0.0219727,-0.485352,26,3,-1,-13,-1,14,1,6,16211
-2.06653,-0.650288,2.61521,7,-86.5,53.9375,0.960449,0.361328,-0.489746,1,-6,-6,-38,-13,0,-31,-9,16268
-2.08316,-0.604589,2.63742,-3.5,-112.25,106.5,1.01416,0.399414,-0.325684,-61,-15,5,19,-14,-13,9,68,16285
-2.09547,-0.542716,2.65703,-3.9375,-137.313,146.375,0.958984,0.418457,0.142578,53,65,23,-15,18,7,-4,7,16303
-2.09146,-0.456733,2.68577,51.1875,-185.688,177.375,1.03174,0.797363,1.01758,-66,-65,-70,-70,-34,-11,-10,-21,16320
-2.06078,-0.350667,2.71797,124.125,-221.688,225.188,1.10449,1.2041,1.85107,57,-9,-44,-11,-17,-28,-9,-58,16337
-2.06078,-0.350667,2.71797,124.125,-221.688,225.188,1.10449,1.2041,1.85107,57,-9,-44,-11,-17,-28,-9,-58,16353
-2.06078,-0.350667,2.71797,124.125,-221.688,225.188,1.10449,1.2041,1.85107,-72,49,-1,1,5,-2,11,16,16370
-2.00721,-0.246566,2.75105,181.5,-214.625,226.25,1.3916,1.19629,2.40039,-2,-65,5,-76,1,-10,-62,20,16388
-1.95328,-0.146351,2.78728,174.5,-208,223.188,1.19482,1.89893,3.01709,-13,25,-6,-128,-1,14,-1,-11,16406
-1.95328,-0.146351,2.78728,174.5,-208,223.188,1.19482,1.89893,3.01709,-56,-17,13,60,-17,-4,116,37,16423
-1.92278,0.0251413,2.849,5.5625,-144.938,178.25,0.699219,1.11816,2.27393,-56,-17,13,60,-17,-4,116,37,16440
-1.91603,0.0846664,2.87497,14.9375,-127.938,135,0.247559,0.86377,1.96387,27,-3,2,18,8,3,-62,-19,16457
-1.90356,0.137748,2.90132,27.5,-121.688,118.438,-0.138672,0.858398,1.51709,11,25,9,-39,-26,-3,-66,-27,16474
-1.88692,0.191695,2.92883,19.0625,-117.75,114.75,-0.289063,0.619629,1.17236,-14,7,10,-43,7,-1,-35,-6,16491
-1.86773,0.24335,2.95585,25.6875,-110.938,108.688,-0.450195,0.494141,0.943848,14,15,3,-7,1,-6,-9,6,16508
-1.84306,0.293745,2.98199,42.25,-104.25,106.563,-0.65918,0.282715,0.619141,-6,-3,0,-17,-9,0,17,-5,16526
-1.73933,0.440476,3.03872,47.5625,-33.5625,57.625,-0.866699,-0.0356445,0.341797,27,12,-3,60,8,-18,7,37,16596
-1.72866,0.471452,3.03984,8.875,2.9375,26,-1.11816,-0.246582,0.285645,-5,-2,-23,-30,0,12,-67,3,16613
-1.72955,0.483483,3.03182,-14.875,37.625,-32.4375,-1.35449,-0.410645,0.302246,-44,5,34,-7,5,-9,41,-18,16630
-1.73023,0.468377,3.01854,-14,65.4375,-99.25,-1.21338,-0.404297,0.404297,-19,-5,-13,8,8,9,26,5,16647
-1.73023,0.468377,3.01854,-14,65.4375,-99.25,-1.21338,-0.404297,0.404297,-16,-14,-38,-16,-25,-7,10,1,16664
-1.75771,0.352789,2.97196,-34.3125,99.0625,-184.938,-0.875,0.266602,0.675293,-3,8,-26,-49,10,9,7,4,16681
-1.75771,0.352789,2.97196,-34.3125,99.0625,-184.938,-0.875,0.266602,0.675293,3,39,14,-56,7,10,-29,1,16697
-1.77767,0.277037,2.95424,-41.875,89.75,-203.375,-0.681641,0.810547,1.36475,18,-6,9,64,14,-2,48,80,16714
-1.79144,0.202264,2.93887,-28.875,87.1875,-200.375,-0.00927734,1.56104,2.02246,-23,23,73,-86,-18,9,12,-14,16731
-1.82382,0.119281,2.91811,-83.375,113.125,-217.5,1.21826,2.07422,2.78809,-59,-75,-21,-36,-46,-21,35,5,16748
-1.86327,0.0247947,2.89274,-107.813,142.875,-241.438,1.30615,2.28174,2.99219,-9,-25,3,-96,-20,42,-125,-47,16766
-1.86327,0.0247947,2.89274,-107.813,142.875,-241.438,1.30615,2.28174,2.99219,24,-17,-128,41,3,-30,-35,-19,16784
-1.95619,-0.178747,2.82085,-165.375,208.438,-237.438,1.1626,1.90967,2.07959,-35,5,-38,125,16,-3,-25,-9,16801
-1.95619,-0.178747,2.82085,-165.375,208.438,-237.438,1.1626,1.90967,2.07959,31,-22,22,-89,-39,15,-40,-12,16817
-2.00336,-0.278801,2.77897,-162.563,221.625,-216.5,0.785645,1.54443,1.70752,35,40,37,52,12,-3,-20,-27,16834
-2.04079,-0.368888,2.73837,-144.563,211.875,-184.813,0.804199,1.21533,1.1416,-16,-34,-27,53,-6,-26,26,-5,16850
-2.13344,-0.641569,2.63634,-22.625,86.1875,-54.875,1.00537,0.26709,-0.550293,-26,-2,-9,2,-3,6,-12,2,16925
-2.1404,-0.673557,2.63168,3.5,55.25,-21.125,0.995117,0.111816,-0.605469,-20,8,32,25,-13,3,7,11,16942
-2.14353,-0.687527,2.62919,20.1875,26,19.875,1.05176,0.0615234,-0.696289,1,-3,-9,-46,3,-4,-47,-5,16959
-2.14353,-0.687527,2.62919,20.1875,26,19.875,1.05176,0.0615234,-0.696289,1,-8,-1,33,15,2,-5,3,16976
-2.14841,-0.690559,2.62909,13.6875,-2.125,45.5,1.13135,0.0273438,-0.589355,-7,-7,-3,12,10,-1,-40,-27,16994
-2.15167,-0.683429,2.6349,22.0625,-38.9375,67.625,1.0625,0.22168,-0.328613,4,-16,-28,-16,23,-3,10,28,17011
-2.14335,-0.641667,2.64247,40.5,-86,105.625,1.02539,0.263672,-0.120605,13,-27,2,50,7,-11,-43,-17,17028
-2.13005,-0.584117,2.65798,64.875,-127.5,134.125,0.943848,0.287598,0.0878906,9,19,7,-93,-44,-1,20,54,17045
-2.11666,-0.51581,2.67564,60.3125,-152.875,160.688,0.861816,0.712891,0.753906,-52,1,-43,24,-28,2,7,-17,17061
-2.11666,-0.51581,2.67564,60.3125,-152.875,160.688,0.861816,0.712891,0.753906,-14,-18,-1,-89,10,-10,10,1,17078
-2.10037,-0.42068,2.70139,80.0625,-196.313,200.188,1.01904,1.00439,1.53027,-9,30,8,-15,13,0,15,-18,17095
-2.07645,-0.31493,2.73568,104,-229.875,218.375,0.993164,1.30811,2.30713,3,17,-19,-128,-21,-3,-53,-9,17112
-2.03511,-0.202021,2.77999,151.063,-259.875,229.375,0.887695,1.52734,2.72803,-11,-17,-33,-8,-30,-12,-15,-7,17129
-1.99749,-0.0833129,2.82878,127.563,-271.813,247.188,1.17188,1.64404,2.63281,-9,3,-45,80,1,-4,-37,-5,17145
-1.98704,0.0144764,2.86861,33.6875,-219,209.188,1.07617,1.31689,2.35889,15,-8,-52,6,-8,-14,-13,-14,17163
-1.98244,0.0935327,2.90377,7.8125,-183.375,167,0.804199,1.05713,2.19629,-38,6,20,29,-5,-5,1,-15,17181
-1.91806,0.280483,2.99596,35.875,-130.563,132.5,-0.225586,0.73877,1.12842,21,3,-7,-57,-24,-3,-7,0,17251
-1.89215,0.336873,3.01777,45.0625,-102.875,124.5,-0.396484,0.407715,0.806152,20,18,31,13,-2,3,21,17,17268
-1.8665,0.38604,3.03271,50.5625,-74.625,112.313,-0.533691,0.272461,0.582031,18,2,-3,15,13,-9,-28,-4,17285
-1.83484,0.443412,3.04534,51.75,-51,96.0625,-0.807129,0.131348,0.445801,9,12,-3,-28,-3,8,6,11,17303
-1.80796,0.496439,3.05279,50.1875,-31.75,80.75,-1.09863,-0.104004,0.252441,27,4,5,-14,6,-3,19,14,17319
-1.80796,0.496439,3.05279,50.1875,-31.75,80.75,-1.09863,-0.104004,0.252441,-4,-2,-15,-12,2,1,24,33,17337
-1.7904,0.538198,3.04989,43.6875,1.375,53.4375,-1.27734,-0.286621,0.117188,8,15,0,27,-2,-15,-1,8,17354
-1.76484,0.567549,3.04902,54.6875,11.5625,13,-1.44238,-0.367676,0.260742,13,29,28,98,24,-24,11,9,17371
-1.73716,0.581103,3.04054,77.625,36,-28.9375,-1.46484,-0.358398,0.19043,-8,-30,-23,-96,-27,-10,14,-10,17389
-1.70122,0.559919,3.02831,115.563,45.125,-74.6875,-1.3877,-0.132324,0.425293,14,-6,15,-31,0,-7,-50,-26,17406
-1.68692,0.515255,3.00217,74.3125,84.4375,-134.75,-1.00684,0.11084,0.33252,-11,18,-38,72,28,11,53,3,17423
-1.70402,0.44624,2.96638,-12.375,122.5,-200.438,-0.76709,0.53125,0.76709,19,31,-13,127,-1,11,15,17,17441
-1.70402,0.44624,2.96638,-12.375,122.5,-200.438,-0.76709,0.53125,0.76709,-12,1,-20,-122,24,2,-77,13,17458
-1.73641,0.351857,2.92478,-46.3125,149.188,-251.5,-0.413574,1.26025,1.54346,4,54,110,90,35,18,32,41,17475
-1.77368,0.248459,2.88685,-74.4375,156.188,-272.375,0.295898,1.91553,2.24658,12,1,-75,-36,47,16,3,-20,17492
-1.82441,0.142783,2.85209,-126.063,164.188,-273.063,0.843262,2.16846,2.84375,66,38,-70,34,-21,9,79,23,17509
-1.99798,-0.212419,2.75589,-200.438,209.75,-274.688,0.975098,1.99365,2.19531,53,19,25,127,-20,-1,-31,-6,17574
-2.05437,-0.306906,2.7278,-182.125,189.063,-209.188,0.881348,1.59375,1.6499,21,0,7,-2,2,-11,10,13,17590
-2.09246,-0.385325,2.70719,-129.438,156.938,-170.25,0.762207,0.939941,1.16016,-26,-11,0,99,-10,7,-21,-27,17607
-2.11665,-0.461482,2.69134,-91.375,137.375,-153.625,0.695313,0.48584,0.574707,-14,-17,-3,15,5,-1,9,-1,17624
-2.11665,-0.461482,2.69134,-91.375,137.375,-153.625,0.695313,0.48584,0.574707,6,3,-7,-109,4,4,28,38,17641
-2.15628,-0.590033,2.67198,-51.6875,92.0625,-93.0625,0.675781,0.410645,-0.113281,6,8,1,-57,2,-6,12,3,17658
-2.15628,-0.590033,2.67198,-51.6875,92.0625,-93.0625,0.675781,0.410645,-0.113281,-16,7,8,-31,-17,8,-75,-17,17675
-2.17855,-0.629601,2.66974,-41.5,58.625,-44.9375,0.758789,0.266602,-0.36377,-24,-8,4,20,-20,-11,1,-21,17693
-2.19505,-0.648935,2.67072,-16.5625,28.5,-6.8125,0.777344,0.116211,-0.558594,18,13,-13,-36,1,-5,-28,10,17711
-2.20367,-0.65164,2.67473,10.875,-3.8125,26.875,0.798828,0.065918,-0.59082,-22,30,29,-1,29,0,-33,-45,17728
-2.20708,-0.63766,2.68162,31.3125,-42.25,67.4375,0.97168,0.00732422,-0.644043,-25,-9,-2,-63,-43,-9,-11,-6,17745
-2.21269,-0.617205,2.68987,25.3125,-69.125,94.9375,1.06299,0.257813,-0.421387,15,2,2,-16,9,1,20,4,17762
-2.21269,-0.617205,2.68987,25.3125,-69.125,94.9375,1.06299,0.257813,-0.421387,18,19,27,6,-2,-4,43,40,17780
-2.20712,-0.563255,2.69509,29.3125,-110.188,132.688,1.03662,0.427246,-0.114258,57,11,0,37,-16,3,71,64,17797
-2.20712,-0.563255,2.69509,29.3125,-110.188,132.688,1.03662,0.427246,-0.114258,-73,-23,-81,-56,-10,-11,31,1,17814
-2.19021,-0.488659,2.70481,63.9375,-154.813,173.938,0.938477,0.411133,0.15332,-16,51,-11,96,10,14,63,16,17831
-1.97879,0.0869934,2.85421,82.5,-199.75,182.438,0.868164,0.94043,2.07617,37,-17,-27,5,-22,6,63,4,17932
-1.96208,0.152718,2.88087,38.625,-143.25,144.25,0.831055,1.46484,1.87158,19,11,-14,1,8,-3,21,36,17949
-1.96947,0.210822,2.90287,-32.5,-121.375,129.75,0.100586,1.36426,1.85107,4,-1,-44,112,22,-11,-20,3,17966
-1.96279,0.272172,2.92283,5.375,-119.188,140.688,-0.31543,0.961914,1.55762,-28,-16,13,44,3,2,26,-2,17983
-1.96279,0.272172,2.92283,5.375,-119.188,140.688,-0.31543,0.961914,1.55762,16,10,13,-122,-2,6,-59,-6,18000
-1.9388,0.335083,2.94004,42.5,-103.875,142.688,-0.288574,0.466309,0.924805,-6,-5,6,-107,28,-12,-40,-6,18017
-1.91101,0.38339,2.94888,62.5,-63.8125,113.75,-0.373535,0.354492,0.694824,-6,18,18,-73,-7,5,-113,-6,18034
-1.88078,0.439714,2.95457,59.0625,-39.75,98.5625,-0.682129,0.324219,0.449707,-17,-21,2,-19,12,-5,7,-23,18051
-1.85696,0.491527,2.95514,51.25,-20.125,88.4375,-0.88623,0.0336914,0.285645,18,-3,-3,-29,1,3,14,23,18068
-1.84726,0.53744,2.95034,23.9375,-1.4375,71.1875,-1.06006,-0.0673828,0.166992,2,10,3,-9,17,0,34,-4,18084
-1.84765,0.56877,2.94333,-6.875,17.875,35.0625,-1.12451,-0.199219,0.216797,16,14,3,-81,-5,-1,26,7,18101
-1.84765,0.56877,2.94333,-6.875,17.875,35.0625,-1.12451,-0.199219,0.216797,22,-23,-4,-67,-14,-10,26,-11,18119
-1.83824,0.585415,2.9393,12.75,25.0625,-4.125,-1.21777,-0.418945,0.248047,-22,-1,56,48,14,-7,-54,14,18136
-1.80621,0.589323,2.93997,67.8125,25.5,-46,-1.22949,-0.329102,0.318359,-2,-42,-123,-78,-19,3,1,5,18153
-1.76989,0.580746,2.94105,78.5625,33,-86.6875,-1.08496,0.0200195,0.425781,-7,29,-8,17,0,11,15,-7,18171
-1.7685,0.527605,2.92338,26.125,76.8125,-150.563,-0.506836,0.273926,0.358398,-18,-21,-37,-90,-24,-12,-21,8,18188
-1.82265,0.263212,2.82714,-3.25,168.625,-259.5,0.220703,2.12402,2.2959,-39,-35,24,-71,-5,-5,83,-11,18263
-1.90247,0.0382393,2.76011,-123.313,196.625,-282.875,0.831055,2.23877,2.70947,54,28,-41,127,-26,8,-33,25,18280
-1.90247,0.0382393,2.76011,-123.313,196.625,-282.875,0.831055,2.23877,2.70947,20,6,11,71,13,2,-18,3,18297
-1.95019,-0.0798247,2.72251,-138.875,219.313,-280,0.625,2.29932,2.44629,4,5,15,10,13,23,-21,-18,18314
-1.95019,-0.0798247,2.72251,-138.875,219.313,-280,0.625,2.29932,2.44629,13,15,9,34,22,15,-41,-13,18331
-2.04054,-0.285473,2.6515,-141.375,201.438,-201.688,0.711914,1.59277,1.5498,34,20,4,31,2,-9,90,31,18347
-2.04054,-0.285473,2.6515,-141.375,201.438,-201.688,0.711914,1.59277,1.5498,23,-4,-28,106,-32,-16,45,40,18364
-2.06306,-0.370367,2.62313,-98.75,169.563,-164.375,0.730957,0.759277,1.00732,-19,4,-2,-81,-2,6,23,0,18381
-2.06936,-0.442692,2.59963,-48.0625,144.125,-139.188,0.759277,0.441406,0.480469,-13,-19,-24,-128,-18,-20,15,-3,18398
-2.07399,-0.505437,2.58094,-37.1875,120.75,-121,0.775879,0.443359,0.218262,-18,-10,-21,-128,11,2,-9,10,18416
-2.08316,-0.565882,2.57046,-27.125,84.75,-81.75,0.842285,0.391113,-0.0522461,-19,-3,-8,-109,5,-6,-109,-10,18432
-2.09377,-0.6067,2.56907,-13.625,44.6875,-46.1875,0.868652,0.275879,-0.225586,-5,-2,8,-27,-4,-3,20,-27,18450
-2.09952,-0.628172,2.57474,11.5,5.3125,-9.6875,0.938477,0.112305,-0.313477,6,3,8,-13,7,7,-6,-11,18467
-2.10446,-0.637049,2.58386,19.125,-19.9375,18.1875,1.0415,0.00830078,-0.366699,-14,-9,-13,-19,-5,-3,-40,-11,18484
-2.10446,-0.637049,2.58386,19.125,-19.9375,18.1875,1.0415,0.00830078,-0.366699,8,4,26,7,18,5,52,1,18501
-2.11307,-0.63907,2.59396,7.5,-36.625,37.625,1.08252,0.0561523,-0.277344,0,-14,-17,-9,-12,-11,-2,21,18518
-2.14513,-0.554928,2.63578,5.6875,-124.063,123.313,0.974121,0.112793,0.0585938,-9,-10,-13,-35,32,-3,-13,5,18591
-2.17287,-0.429365,2.66748,-33,-158.875,151.5,0.744141,0.682129,0.997559,0,50,-41,-79,4,10,-31,-17,18608
-2.18697,-0.333161,2.69138,-14.875,-210.125,189.688,0.698242,1.22656,1.80029,10,-17,11,24,-12,5,-12,-14,18625
-2.19336,-0.215013,2.72215,5.4375,-266.063,226.5,0.748047,1.23926,2.44531,-8,-1,-3,6,-12,-10,22,6,18642
-2.19336,-0.215013,2.72215,5.4375,-266.063,226.5,0.748047,1.23926,2.44531,-25,29,11,65,8,-8,-4,-7,18659
-2.17618,-0.0845987,2.75522,63.25,-292.125,251.813,0.831055,1.38818,2.76709,15,-9,-58,-56,-9,-15,0,-4,18676
-2.15,0.0447721,2.78793,76.5625,-285.375,255.5,1.0791,1.39941,2.58252,37,3,25,-60,-26,-8,-5,-45,18694
-2.13354,0.151004,2.81622,39.5625,-232.688,212.375,0.959961,1.37744,2.44141,-10,-26,-10,4,-11,8,80,21,18710
-2.11854,0.233898,2.83908,30.25,-180,168.125,0.679199,1.12158,2.28662,9,14,3,-26,-14,1,-4,9,18727
-2.08793,0.304143,2.85985,72.0625,-151.563,144,0.178223,1.1123,1.91504,34,11,12,22,4,-6,-5,31,18744
-2.06085,0.372455,2.87345,64.1875,-126.813,153.875,-0.152344,0.987305,1.34863,-18,-5,-7,18,-12,-19,-40,-1,18760
-2.06085,0.372455,2.87345,64.1875,-126.813,153.875,-0.152344,0.987305,1.34863,-36,-16,16,-7,27,8,-11,9,18777
-2.03748,0.441138,2.88302,46.625,-103.813,154.063,-0.409668,0.445801,0.907227,46,29,4,-38,3,17,-33,16,18795
-2.01119,0.501228,2.89058,59,-83.9375,136.375,-0.562012,0.250488,0.61377,-1,-1,1,3,-3,-4,-45,-12,18812
-1.98055,0.550734,2.89832,71.25,-67.3125,110.063,-0.722168,0.183594,0.479004,4,14,-1,-18,-5,6,-9,5,18829
-1.94911,0.606553,2.90665,64.25,-50.4375,89.25,-0.894531,0.0922852,0.268555,7,2,-6,-14,-44,-10,-26,-3,18846
-1.92126,0.683921,2.9063,5.625,17.375,-27.375,-1.2915,-0.375977,0.113281,-67,-15,-18,-51,-5,6,-2,0,18906
-1.92126,0.683921,2.9063,5.625,17.375,-27.375,-1.2915,-0.375977,0.113281,-19,2,12,3,-4,6,-32,-29,18923
-1.90435,0.673902,2.91357,19.25,25.0625,-79.875,-1.21191,-0.356445,0.193359,7,-28,17,37,3,4,18,-2,18940
-1.89635,0.633809,2.91728,11.0625,37.8125,-124.5,-1.09424,-0.106934,0.350586,61,16,9,6,3,3,48,32,18957
-1.89552,0.581426,2.91852,-7.25,54.875,-155.938,-0.833496,0.123047,0.617188,5,15,40,116,47,11,-16,-4,18974
-1.90025,0.513011,2.9165,-24,80.1875,-194.75,-0.51416,0.424316,1.13721,22,0,8,-70,24,-8,-11,20,18991
-1.90856,0.422185,2.91169,-17.6875,96.9375,-242.125,-0.108887,1.34521,2.16162,-55,4,-51,109,-16,-9,40,-21,19008
-1.9314,0.320442,2.90245,-55.8125,122.875,-265.5,0.810059,1.77441,2.57373,-52,61,16,48,48,2,65,9,19024
-1.9314,0.320442,2.90245,-55.8125,122.875,-265.5,0.810059,1.77441,2.57373,-2,-31,11,-77,1,-18,-64,-50,19041
-1.98764,0.210733,2.88343,-146.813,167.938,-271.375,1.21777,2.29053,2.98193,8,-2,26,-57,34,-11,30,21,19058
-2.05466,0.0933687,2.8677,-185.375,186.938,-283.688,1.22852,2.06934,2.91113,6,4,6,-27,-14,7,16,14,19075
-2.1171,-0.0228755,2.85532,-177.938,194.938,-273,1.08496,1.67529,2.4751,-8,23,31,32,-7,14,42,30,19092
-2.16557,-0.13009,2.84872,-140.375,182.313,-248.688,0.936035,1.58301,1.98877,32,1,13,9,-5,36,-56,1,19109
-2.16557,-0.13009,2.84872,-140.375,182.313,-248.688,0.936035,1.58301,1.98877,15,-24,-6,-57,-23,-15,63,17,19126
-2.24891,-0.312622,2.8446,-117.875,143.375,-190.938,0.775879,0.739258,0.875977,17,-3,15,18,2,8,41,6,19143
-2.24891,-0.312622,2.8446,-117.875,143.375,-190.938,0.775879,0.739258,0.875977,71,-15,3,7,-10,3,39,8,19160
-2.42982,-0.586926,2.92179,-23.3125,18.875,-37.5625,0.922363,0.35498,-0.734375,3,-9,-1,-14,-11,-10,-59,-13,19260
-2.4452,-0.600893,2.9326,10.25,-5.25,3.625,1.10303,0.200195,-0.756348,-6,6,-1,-20,-3,26,-27,16,19277
-2.45083,-0.605602,2.93649,25.75,-23.6875,39.1875,1.14258,0.323242,-0.568359,10,4,3,-5,-1,13,35,13,19294
-2.4497,-0.594082,2.93219,25.1875,-51.3125,81.625,1.0415,0.367676,-0.34668,-9,-21,-4,5,7,-10,-22,-8,19311
-2.42898,-0.548217,2.9169,39.8125,-86.25,124.375,0.970703,0.211914,-0.15332,-14,-18,-1,-3,-8,-6,-27,-40,19328
-2.40266,-0.488947,2.90224,56.1875,-115.125,152.25,0.970215,0.3125,0.187012,12,11,-25,-33,1,1,-8,-5,19345
-2.40266,-0.488947,2.90224,56.1875,-115.125,152.25,0.970215,0.3125,0.187012,-12,4,-15,23,0,4,40,24,19362
-2.37641,-0.42154,2.8872,54.125,-131.5,174.625,0.959961,0.60498,0.812988,-3,9,15,-47,-18,7,8,-16,19380
-2.33909,-0.32885,2.87664,96,-168.375,207.563,0.890625,1.0293,1.62598,-19,-25,47,8,-6,-3,8,-8,19397
-2.28251,-0.213633,2.87856,163.438,-227,240.375,0.733398,1.12988,2.16846,12,5,12,-15,-9,-6,-54,-7,19414
-2.2116,-0.0899545,2.88583,206.5,-238.313,264,1.06982,1.4458,2.50391,6,4,32,-4,3,5,-65,-2,19430
-2.1505,0.0299855,2.90287,176.375,-237.25,254.125,1.15381,1.65723,2.51221,12,-8,-12,31,-4,-1,-25,27,19448
-2.1505,0.0299855,2.90287,176.375,-237.25,254.125,1.15381,1.65723,2.51221,16,15,34,90,-6,-3,58,21,19464
-2.1161,0.129287,2.91407,96,-179,223.563,1.01953,1.46973,2.24365,-38,-17,7,25,5,5,-21,-14,19481
-2.0952,0.207981,2.92433,54.875,-140.188,179.438,0.747559,1.25439,2.0752,7,10,0,29,6,7,10,14,19499
-2.06627,0.270069,2.93635,74.75,-115.938,138.813,0.307129,1.06982,1.90283,30,15,18,29,17,-12,1,15,19516
-1.90874,0.527663,2.97187,69.0625,-20.5625,80.8125,-0.720703,-0.0654297,0.255371,7,12,-9,-28,-10,1,37,12,19609
-1.89982,0.560028,2.95879,35.625,19.5625,57.8125,-0.82373,-0.149902,0.106445,-19,-11,6,7,-2,-12,2,-43,19626
-1.9048,0.583521,2.9406,3.4375,43.125,30.375,-1.06348,-0.291992,0.081543,-25,-12,-7,0,-29,-9,36,-12,19644
-1.9048,0.583521,2.9406,3.4375,43.125,30.375,-1.06348,-0.291992,0.081543,0,0,-4,-5,10,-1,-23,-11,19661
-1.91271,0.598153,2.92248,-5.8125,51.625,7.25,-1.20947,-0.491211,0.0371094,-13,-7,-5,-21,2,9,-2,17,19678
-1.91148,0.604816,2.9117,4.5,48.1875,-25,-1.30957,-0.502441,0.120605,-13,-7,-5,-21,2,9,-2,17,19694
-1.9017,0.600553,2.91056,10.25,41.5,-70.6875,-1.29297,-0.268066,0.264648,7,9,-7,-3,4,0,10,0,19711
-1.9017,0.600553,2.91056,10.25,41.5,-70.6875,-1.29297,-0.268066,0.264648,-4,23,27,-7,11,-3,-28,-3,19729
-1.90533,0.507524,2.90393,-19.375,75.625,-160.813,-0.528809,0.413574,0.984375,0,-6,-8,-21,6,5,-10,11,19746
-1.90533,0.507524,2.90393,-19.375,75.625,-160.813,-0.528809,0.413574,0.984375,-29,5,-23,23,-13,0,11,16,19763
-1.91332,0.427296,2.89497,-11.625,97.8125,-209.188,-0.23877,1.43604,2.12305,-19,1,42,-89,-53,-12,70,10,19781
-1.91917,0.339103,2.88585,-6.8125,108.563,-229.75,0.591309,2.07373,2.66357,4,1,54,-30,-13,9,16,3,19798
-1.91917,0.339103,2.88585,-6.8125,108.563,-229.75,0.591309,2.07373,2.66357,-3,23,-9,-94,-2,24,-16,1,19815
-2.00656,0.129541,2.84657,-126.688,179.75,-269.188,1.38184,2.44922,2.7959,76,22,-19,26,28,24,62,21,19832
-2.04889,0.0301768,2.81835,-114.688,198.063,-220.125,1.45703,2.14893,2.16504,-78,-31,-49,23,5,31,56,-41,19849
-2.04889,0.0301768,2.81835,-114.688,198.063,-220.125,1.45703,2.14893,2.16504,65,-10,24,22,4,23,-15,33,19866
-2.12674,-0.244744,2.72885,-63.375,193.063,-154.313,0.757324,0.756836,0.746094,43,6,-27,-3,0,-14,-15,-3,19934
-2.1572,-0.362746,2.6693,-67.5,135,-68.5625,0.831543,0.471191,0.171875,-24,-15,-16,-15,-16,-17,-52,19,19951
-2.16753,-0.413792,2.6527,-34.8125,95.1875,-53.125,0.71582,0.222168,-0.0898438,-5,5,-6,16,-10,-1,-34,-14,19968
-2.16753,-0.413792,2.6527,-34.8125,95.1875,-53.125,0.71582,0.222168,-0.0898438,-26,-23,-7,7,-6,-7,-28,-19,19986
-2.16753,-0.413792,2.6527,-34.8125,95.1875,-53.125,0.71582,0.222168,-0.0898438,-26,4,-4,-9,-8,-3,28,8,20003
-2.18063,-0.481619,2.63958,-6.6875,35.3125,-15.3125,0.847656,0.160156,-0.337402,20,0,-3,20,8,14,20,20,20021
-2.19452,-0.49997,2.64164,-17,7.625,-1.0625,0.92334,-0.0336914,-0.424316,-8,7,4,15,17,-9,31,-16,20039
-2.19452,-0.49997,2.64164,-17,7.625,-1.0625,0.92334,-0.0336914,-0.424316,43,6,-1,-30,-22,5,-56,12,20057
-2.22944,-0.510164,2.66392,-10.0625,-51.6875,29.4375,0.916016,0.150879,-0.318359,-4,3,-7,-22,-22,-10,-3,-21,20074
-2.2453,-0.491705,2.6792,-8.5625,-90.0625,66.4375,0.870117,0.204102,-0.175781,-25,3,3,-15,4,-4,-4,-6,20091
-2.2453,-0.491705,2.6792,-8.5625,-90.0625,66.4375,0.870117,0.204102,-0.175781,-4,-15,-53,28,80,12,34,-14,20108
-2.26085,-0.386004,2.71183,-0.3125,-155,106.563,0.821289,0.1875,0.500488,21,-1,30,17,-3,-5,-17,-5,20125
-2.26085,-0.386004,2.71183,-0.3125,-155,106.563,0.821289,0.1875,0.500488,21,-1,30,17,-3,-5,-17,-5,20142
-2.26085,-0.386004,2.71183,-0.3125,-155,106.563,0.821289,0.1875,0.500488,67,16,-14,-118,-38,-5,29,22,20159
-2.25692,-0.311164,2.7318,30.5,-177.875,131.375,0.935059,0.687988,1.2041,47,-14,-100,-33,-10,0,9,34,20176
-2.25692,-0.311164,2.7318,30.5,-177.875,131.375,0.935059,0.687988,1.2041,13,6,-45,69,61,23,0,5,20193
-2.10841,0.187534,2.86022,28.5625,-164.375,165.313,0.822266,1.25439,2.2832,12,22,7,-10,-1,8,0,11,20296
-2.06269,0.359559,2.89963,28.75,-93.3125,107,-0.362305,0.376465,0.956055,-47,-13,-3,-92,-4,2,-44,-19,20313
-2.06269,0.359559,2.89963,28.75,-93.3125,107,-0.362305,0.376465,0.956055,-53,-8,-5,-34,-1,-9,18,2,20330
-2.03595,0.412321,2.91273,55.625,-92,108.063,-0.616211,0.182129,0.584961,6,-19,-14,-58,-1,7,-6,12,20347
-2.03595,0.412321,2.91273,55.625,-92,108.063,-0.616211,0.182129,0.584961,7,31,5,-30,14,2,-13,16,20364
-1.98631,0.529013,2.93475,25.75,-51.75,83.4375,-1.00781,-0.0976563,0.191895,-17,-24,-15,-63,-12,-3,-42,-8,20381
-1.9813,0.570684,2.93691,-2,-19.75,50.9375,-1.20996,-0.242188,0.129883,42,-11,-3,-4,12,5,14,-17,20398
-1.9813,0.570684,2.93691,-2,-19.75,50.9375,-1.20996,-0.242188,0.129883,8,-5,-7,-43,-12,14,31,10,20415
-1.98919,0.610887,2.93799,-30.875,17.25,-21.25,-1.27344,-0.371094,0.138184,-11,7,5,-12,-12,4,-37,-1,20432
-1.98653,0.607652,2.94493,-24.25,23.3125,-58.25,-1.04395,-0.29248,0.259766,25,2,-11,-15,4,-11,-24,-22,20449
-1.98653,0.607652,2.94493,-24.25,23.3125,-58.25,-1.04395,-0.29248,0.259766,-42,6,9,-10,-15,-6,19,-8,20466
-1.98653,0.607652,2.94493,-24.25,23.3125,-58.25,-1.04395,-0.29248,0.259766,43,-12,-63,12,8,7,46,33,20483
-2.0015,0.538612,2.94007,-35.4375,85.25,-133,-0.754883,0.207031,0.474121,16,14,6,-55,-1,0,-2,-12,20500
-2.02003,0.473578,2.92829,-45.8125,117,-167.25,-0.556152,0.472656,0.873047,62,7,7,43,0,10,12,11,20517
-2.02003,0.473578,2.92829,-45.8125,117,-167.25,-0.556152,0.472656,0.873047,-85,-41,-51,8,-1,-22,-19,-33,20534
-2.06989,0.297504,2.88971,-59.625,169.313,-208.063,0.455078,1.71191,2.51221,-42,-31,15,91,9,-6,26,4,20551
-2.19908,0.0353034,2.82629,-104.75,205,-189.375,1.45117,1.36475,2.1875,-8,-7,-15,76,7,-20,32,-5,20621
-2.22719,-0.0537026,2.80982,-80.75,190.813,-176.063,1.03467,1.12744,1.93066,-9,-22,6,-7,-7,6,81,-2,20638
-2.22719,-0.0537026,2.80982,-80.75,190.813,-176.063,1.03467,1.12744,1.93066,16,-3,7,2,-8,-18,-22,1,20655
-2.28681,-0.203317,2.78166,-104.813,154.875,-124.688,0.749512,0.856934,1.27441,3,-9,9,1,-7,-1,22,-5,20672
-2.31315,-0.262591,2.77113,-85.5625,123.625,-95.1875,0.754395,0.527344,0.751465,-1,9,-1,-21,2,0,12,-9,20689
-2.31315,-0.262591,2.77113,-85.5625,123.625,-95.1875,0.754395,0.527344,0.751465,2,-25,-16,-2,5,-27,7,-15,20706
-2.31315,-0.262591,2.77113,-85.5625,123.625,-95.1875,0.754395,0.527344,0.751465,0,4,-5,32,-12,8,-10,16,20723
-2.33831,-0.363679,2.76466,-19.8125,61.25,-54,0.588379,0.15332,-0.0986328,12,10,-2,-73,7,3,6,0,20740
-2.35133,-0.392014,2.7671,-12.1875,37.5,-35.375,0.51416,0.15918,-0.337402,72,1,-1,8,25,-14,9,17,20757
-2.35133,-0.392014,2.7671,-12.1875,37.5,-35.375,0.51416,0.15918,-0.337402,1,11,8,7,-2,5,-42,-5,20774
-2.38133,-0.408449,2.78026,-0.0625,-20.0625,10.9375,0.552246,0.0957031,-0.57959,-70,-42,-14,-72,1,8,-10,-21,20791
-2.39065,-0.400363,2.78735,14.375,-47.1875,38.375,0.731445,0.138672,-0.605957,-25,-5,-4,-41,-13,-6,4,-17,20808
-2.39065,-0.400363,2.78735,14.375,-47.1875,38.375,0.731445,0.138672,-0.605957,4,-2,-6,-26,-20,0,25,18,20824
-2.39065,-0.400363,2.78735,14.375,-47.1875,38.375,0.731445,0.138672,-0.605957,-48,-7,-13,-31,-2,0,-17,-18,20842
-2.40287,-0.342971,2.79733,8.75,-101.625,85.625,0.753418,0.335449,-0.215332,27,14,13,0,-20,-7,-11,-12,20859
-2.40024,-0.28734,2.8011,13.125,-135.625,111.188,0.910645,0.20166,0.00341797,9,-5,-60,-21,3,-5,33,-4,20876
-2.33336,-0.043935,2.84903,125.813,-245.25,166.5,1.12793,1.14014,1.99219,-62,6,42,17,-15,6,-14,-16,20934
-2.27998,0.0607139,2.87205,152.563,-250.188,178.125,1.3877,1.22363,2.43945,9,-20,-32,-71,-35,-5,35,4,20951
-2.27998,0.0607139,2.87205,152.563,-250.188,178.125,1.3877,1.22363,2.43945,-26,-30,-28,-22,6,-2,-9,1,20968
-2.27998,0.0607139,2.87205,152.563,-250.188,178.125,1.3877,1.22363,2.43945,2,14,-27,-44,1,-3,14,0,20985
-2.1614,0.238187,2.93349,141.625,-199.875,137.25,1.4751,1.22266,2.23047,-2,-9,-14,55,-12,-1,-4,-4,21002
-2.13931,0.292396,2.95459,47.4375,-133.938,97.875,1.04688,1.19629,1.9043,14,19,-7,-2,-9,4,27,16,21019
-2.13931,0.292396,2.95459,47.4375,-133.938,97.875,1.04688,1.19629,1.9043,27,13,10,-17,3,3,-4,6,21036
-2.10644,0.368249,2.98391,43.3125,-82.375,66.875,0.0419922,0.767578,1.37354,0,6,0,15,6,-11,-1,9,21053
-2.10644,0.368249,2.98391,43.3125,-82.375,66.875,0.0419922,0.767578,1.37354,-3,1,-4,22,-17,4,18,8,21070
-2.06693,0.418172,3.00164,51.9375,-75.375,72.125,-0.233887,0.59375,1.08301,7,6,0,-37,-10,2,-44,-8,21087
-2.06693,0.418172,3.00164,51.9375,-75.375,72.125,-0.233887,0.59375,1.08301,3,9,0,-56,1,3,13,6,21105
-2.06693,0.418172,3.00164,51.9375,-75.375,72.125,-0.233887,0.59375,1.08301,-30,-12,-10,-25,-5,-6,-7,-9,21122
-2.00097,0.523773,3.01229,62.3125,-33.5,98.25,-0.515625,0.228027,0.511719,-30,-12,-10,-25,-5,-6,-7,-9,21138
-2.00097,0.523773,3.01229,62.3125,-33.5,98.25,-0.515625,0.228027,0.511719,-4,-12,-11,-29,41,7,11,18,21155
-1.98036,0.568181,2.99842,62.125,6.1875,95.375,-0.628906,0.0444336,0.333008,54,33,7,-39,9,2,44,21,21172
-1.96975,0.640115,2.94855,29.1875,49.0625,68.25,-1.02979,-0.326172,0.139648,21,5,-6,-18,16,-3,-9,3,21189
-1.975,0.65161,2.89874,1.625,66.375,-65.3125,-1.19629,-0.46582,0.250977,8,15,-2,-4,8,8,-4,-1,21249
-1.97304,0.615563,2.89588,5.1875,55.6875,-103.313,-0.931152,-0.121094,0.376953,-24,-9,-1,8,-1,-13,8,-1,21267
-1.97304,0.615563,2.89588,5.1875,55.6875,-103.313,-0.931152,-0.121094,0.376953,6,-24,18,-7,3,13,32,18,21284
-1.99758,0.500588,2.88564,-32.4375,84.5625,-167,-0.437988,0.788086,1.63232,53,7,-21,37,-13,2,24,26,21301
-1.99758,0.500588,2.88564,-32.4375,84.5625,-167,-0.437988,0.788086,1.63232,59,16,52,75,14,-16,-50,-4,21318
-1.99758,0.500588,2.88564,-32.4375,84.5625,-167,-0.437988,0.788086,1.63232,-36,5,118,-57,13,-1,-28,-1,21336
-1.99758,0.500588,2.88564,-32.4375,84.5625,-167,-0.437988,0.788086,1.63232,37,4,-18,-89,0,26,21,2,21353
-2.08249,0.249097,2.86809,-125.25,160.125,-226.313,1.69629,2.33887,2.98877,-4,-2,6,36,-45,-7,8,1,21371
-2.12927,0.15251,2.84833,-122.813,188.875,-209.813,1.50439,2.229,2.29785,-42,-2,13,69,4,-6,-74,-17,21389
-2.12927,0.15251,2.84833,-122.813,188.875,-209.813,1.50439,2.229,2.29785,2,13,6,27,10,-2,9,-3,21406
-2.2102,-0.0307158,2.79963,-95.9375,205.813,-170.813,0.906738,0.983398,1.23584,7,-6,-12,3,-1,-7,-16,-7,21423
-2.22765,-0.118557,2.7769,-59.25,195.625,-151.188,0.637695,0.725098,0.895508,24,0,-3,-3,-12,6,25,5,21441
-2.22765,-0.118557,2.7769,-59.25,195.625,-151.188,0.637695,0.725098,0.895508,-39,4,-2,-12,-13,-4,-7,2,21459
-2.25794,-0.245644,2.74489,-55.125,118,-90.0625,0.618164,0.333008,0.268066,-7,-6,-15,-59,-7,3,6,-2,21476
-2.27116,-0.294942,2.73865,-37.8125,79.0625,-66.25,0.590332,0.0854492,-0.0214844,-31,-33,-7,-5,-8,0,33,7,21493
-2.27116,-0.294942,2.73865,-37.8125,79.0625,-66.25,0.590332,0.0854492,-0.0214844,28,16,-4,-23,-17,-6,-13,-4,21510
-2.31061,-0.378002,2.75418,-7.5625,-12.75,-14.5,0.855957,-0.0458984,-0.52002,11,10,2,2,7,-3,43,12,21564
-2.31061,-0.378002,2.75418,-7.5625,-12.75,-14.5,0.855957,-0.0458984,-0.52002,-22,13,17,-2,-5,-16,-12,-16,21580
-2.34891,-0.391316,2.78718,-5.1875,-60.4375,20.9375,1.0835,0.336426,-0.493164,7,-11,-22,-19,-6,2,14,-2,21597
-2.36523,-0.377632,2.79902,3.125,-87.4375,63.8125,1.00977,0.483398,-0.344727,-9,-6,24,72,22,6,34,4,21614
-2.36523,-0.377632,2.79902,3.125,-87.4375,63.8125,1.00977,0.483398,-0.344727,-18,-6,-30,-21,1,10,24,-3,21631
-2.3521,-0.270224,2.80439,29.25,-140.25,128,0.999023,0.658203,0.452637,4,-6,-28,-2,-9,6,-6,-9,21649
-2.3521,-0.270224,2.80439,29.25,-140.25,128,0.999023,0.658203,0.452637,17,34,66,-16,3,-1,-3,-10,21667
-2.32675,-0.186906,2.80517,72.9375,-167.688,169.875,1.00781,0.98291,1.08936,-10,17,-44,-19,-6,4,-3,-3,21684
-2.32675,-0.186906,2.80517,72.9375,-167.688,169.875,1.00781,0.98291,1.08936,-14,-12,87,-25,8,2,32,4,21702
-2.22705,0.0179235,2.81414,158.75,-207.375,222.938,0.999023,1.41309,2.4541,49,-15,-10,-79,-21,-2,-17,5,21720
-2.17031,0.126698,2.82786,159.25,-215.188,229.375,0.951172,1.78857,2.77979,-19,0,28,-2,3,0,-2,-6,21737
-2.17031,0.126698,2.82786,159.25,-215.188,229.375,0.951172,1.78857,2.77979,-8,17,24,50,8,2,19,3,21754
-2.1101,0.30412,2.85125,50.1875,-140.563,176,0.896484,1.15625,2.11377,-8,-25,-19,0,-12,-8,-44,-24,21771
-2.1101,0.30412,2.85125,50.1875,-140.563,176,0.896484,1.15625,2.11377,-17,-19,-5,-7,7,2,-24,-12,21787
-2.09513,0.3632,2.85833,36.3125,-102.313,136.125,0.515137,0.927734,1.88135,8,11,14,-11,-2,-6,22,14,21803
-2.09513,0.3632,2.85833,36.3125,-102.313,136.125,0.515137,0.927734,1.88135,-5,1,9,31,-1,-2,17,7,21820
-2.04188,0.50991,2.8702,40.9375,-61.3125,109.875,-0.52832,0.388184,0.797363,-4,-10,8,-4,-1,6,16,2,21889
-1.99732,0.600891,2.87131,51.1875,-29.375,83.125,-0.709961,0.0957031,0.331055,0,4,-3,-1,10,1,-27,-13,21906
-1.97992,0.640385,2.86959,39.4375,-14.6875,65.5625,-0.871582,-0.120117,0.194336,16,-7,-1,-25,-14,-1,-11,10,21923
-1.97992,0.640385,2.86959,39.4375,-14.6875,65.5625,-0.871582,-0.120117,0.194336,-18,10,18,6,2,-3,22,5,21940
-1.95599,0.674171,2.87384,5.375,14,-18.8125,-1.1665,-0.486328,0.168457,4,-11,-14,-14,-1,-2,14,-6,21957
-1.94195,0.668847,2.8858,-2.6875,16.4375,-68.75,-1.26025,-0.46582,0.238281,8,-16,-1,5,-5,0,1,10,21974
-1.94195,0.668847,2.8858,-2.6875,16.4375,-68.75,-1.26025,-0.46582,0.238281,-10,-7,-9,-45,12,6,-40,-1,21991
-1.93618,0.583842,2.91008,-24.75,36,-154.5,-0.795898,0.0429688,0.404785,4,-6,-60,-22,5,-2,-27,-13,22009
-1.93618,0.583842,2.91008,-24.75,36,-154.5,-0.795898,0.0429688,0.404785,14,16,36,36,25,2,15,7,22026
-1.94764,0.51786,2.91766,-51.0625,59.5,-192.625,-0.585449,0.182129,0.563965,-1,4,-42,-11,-57,-20,-46,2,22043
-1.94764,0.51786,2.91766,-51.0625,59.5,-192.625,-0.585449,0.182129,0.563965,-4,1,61,40,7,11,55,13,22060
-1.97044,0.333919,2.91961,-34.625,111.75,-256.938,-0.333008,2.19678,2.30469,9,-7,10,-63,-29,1,25,5,22077
-2.01859,0.241194,2.91458,-134.063,122,-236.625,0.70752,2.604,2.71631,-50,-92,-94,20,3,-15,-98,-29,22095
-2.01859,0.241194,2.91458,-134.063,122,-236.625,0.70752,2.604,2.71631,11,9,-29,-53,-16,4,10,10,22111
-2.13456,0.0682724,2.88325,-115.188,169.188,-200.188,1.75244,1.47852,2.2627,20,14,15,51,7,-7,77,-2,22128
-2.13456,0.0682724,2.88325,-115.188,169.188,-200.188,1.75244,1.47852,2.2627,-13,-7,-10,84,1,-14,-21,12,22146
-2.23073,-0.253514,2.8264,-81.5,128.438,-128.875,0.603516,0.55127,0.667969,-5,3,11,-14,8,-2,-2,4,22210
-2.23073,-0.253514,2.8264,-81.5,128.438,-128.875,0.603516,0.55127,0.667969,13,11,2,3,2,13,-56,4,22226
-2.23073,-0.253514,2.8264,-81.5,128.438,-128.875,0.603516,0.55127,0.667969,5,-12,-7,-20,29,-3,-4,-3,22244
-2.27504,-0.373244,2.82597,-46.5625,61.8125,-72.5625,0.740723,0.395996,-0.0859375,-13,9,0,-5,-15,2,89,7,22261
-2.29843,-0.408567,2.8289,-40.6875,40.875,-44.5,0.672363,0.179199,-0.322266,-7,2,-1,-3,-9,-3,-30,-10,22277
-2.29843,-0.408567,2.8289,-40.6875,40.875,-44.5,0.672363,0.179199,-0.322266,6,4,-3,-26,-18,6,-29,-14,22295
-2.32344,-0.445611,2.82881,-6.5625,10.8125,7.3125,0.84668,-0.0634766,-0.56543,42,-2,-3,-8,5,0,17,13,22313
-2.33396,-0.45326,2.83095,-2.375,-10.1875,20.375,0.893555,-0.019043,-0.565918,26,15,9,-14,-6,8,-28,-7,22331
-2.33396,-0.45326,2.83095,-2.375,-10.1875,20.375,0.893555,-0.019043,-0.565918,-31,-21,-7,-13,-44,-20,-24,-22,22347
-2.33396,-0.45326,2.83095,-2.375,-10.1875,20.375,0.893555,-0.019043,-0.565918,19,0,11,34,13,-4,-7,-4,22364
-2.35616,-0.430947,2.8331,-2.9375,-73.375,93.1875,0.918945,0.333008,-0.268066,11,5,18,6,9,-2,-2,-14,22381
-2.35645,-0.376469,2.82458,-7.25,-104.688,138.438,0.959961,0.206055,-0.0957031,-24,-38,-68,64,3,-17,-17,16,22398
-2.35645,-0.376469,2.82458,-7.25,-104.688,138.438,0.959961,0.206055,-0.0957031,2,2,69,-16,0,-1,-12,-6,22416
-2.33911,-0.222932,2.82608,53.0625,-187.625,165.313,1.07422,0.750488,1.34766,9,-22,-47,-91,-9,-6,17,0,22433
-2.30962,-0.117594,2.83887,90.5,-233.063,195,0.712891,1.43604,2.28076,-58,-9,-44,-8,1,-2,-42,-22,22450
-2.30962,-0.117594,2.83887,90.5,-233.063,195,0.712891,1.43604,2.28076,19,-50,-25,-35,-5,-7,18,15,22467
-2.20337,0.212206,2.89874,61,-209.625,183.188,1.24902,1.36914,2.33057,40,20,21,16,27,-4,-7,-5,22552
-2.16897,0.352879,2.92377,43.9375,-127.25,132.938,0.460938,0.931152,1.76563,-6,-1,-4,-30,11,-6,2,10,22569
-2.14286,0.409389,2.93073,67.375,-104.875,125,0.0429688,0.85791,1.38428,-32,2,-1,1,12,18,-2,-8,22587
-2.14286,0.409389,2.93073,67.375,-104.875,125,0.0429688,0.85791,1.38428,9,-7,-6,-10,-26,-6,-42,-3,22604
-2.0919,0.524332,2.93473,65.4375,-73.1875,128.5,-0.402832,0.415039,0.734375,-7,0,-9,-25,-3,-4,-11,21,22621
-2.06834,0.573504,2.93091,69.125,-53.125,119.75,-0.529297,0.104004,0.391602,33,-6,-9,-18,5,9,-18,-6,22637
-2.06834,0.573504,2.93091,69.125,-53.125,119.75,-0.529297,0.104004,0.391602,4,-1,-1,-23,3,-4,16,-3,22654
-2.03013,0.656417,2.9184,38.875,-1.375,57.375,-0.97168,-0.121582,0.208984,-1,17,1,1,-1,-4,32,-15,22672
-2.03013,0.656417,2.9184,38.875,-1.375,57.375,-0.97168,-0.121582,0.208984,-6,7,1,-5,-2,-2,5,-1,22689
-2.0218,0.683054,2.91257,20.9375,13.0625,27.9375,-1.19238,-0.273926,0.139648,-5,-7,-2,-6,-2,1,16,3,22705
-2.0218,0.683054,2.91257,20.9375,13.0625,27.9375,-1.19238,-0.273926,0.139648,-40,-16,6,56,-4,-18,-56,-1,22722
-2.0068,0.691319,2.91019,-0.25,35.625,-45.25,-1.02393,-0.402344,0.165527,-43,-11,-16,-22,3,3,-1,4,22739
-1.99785,0.673047,2.91694,-10.625,48.8125,-95.625,-1.02539,-0.205566,0.397461,27,3,-36,-13,-16,1,20,4,22757
-1.99785,0.673047,2.91694,-10.625,48.8125,-95.625,-1.02539,-0.205566,0.397461,11,32,57,55,5,13,35,23,22774
-2.00333,0.562153,2.91865,-16.9375,87.875,-180.688,-0.783691,0.318848,0.820313,-29,-43,5,-32,-37,-9,-76,-29,22791
-2.00333,0.562153,2.91865,-16.9375,87.875,-180.688,-0.783691,0.318848,0.820313,47,4,21,34,30,-2,-37,-5,22808
-2.13179,0.182416,2.90586,-129,166.25,-266.938,0.999512,2.14844,3.07422,11,-4,22,79,8,5,-16,10,22876
-2.17439,0.0878502,2.89807,-119.313,167.5,-214.438,1.30664,2.54541,2.57178,13,-5,-30,-76,-5,-10,-36,1,22894
-2.17439,0.0878502,2.89807,-119.313,167.5,-214.438,1.30664,2.54541,2.57178,-26,-13,5,109,-3,-16,-52,-19,22911
-2.23277,0.0010076,2.88322,-165.313,181.813,-175.5,1.62061,2.00098,2.09912,19,-1,-20,11,8,6,-20,-9,22928
-2.30483,-0.17178,2.85068,-82.6875,199.125,-157.688,1.21289,0.723633,0.789063,41,3,-3,4,-25,-8,-28,-17,22946
-2.30483,-0.17178,2.85068,-82.6875,199.125,-157.688,1.21289,0.723633,0.789063,-12,-7,-12,-24,-4,-12,30,26,22963
-2.32919,-0.261805,2.83518,-78.25,193.688,-145,1.05713,0.507813,0.405762,-7,-3,-7,12,14,-3,8,33,22980
-2.35223,-0.333971,2.82245,-73.3125,158.5,-112.125,0.825195,0.446289,0.157227,-100,-33,-4,-13,3,-8,-24,4,22999
-2.36442,-0.380735,2.81168,-43.4375,107.875,-65.1875,0.766113,0.0620117,-0.162598,27,17,-10,-48,-29,-13,-90,-81,23016
-2.36442,-0.380735,2.81168,-43.4375,107.875,-65.1875,0.766113,0.0620117,-0.162598,-78,-21,12,44,15,-25,25,-28,23034
-2.37905,-0.446282,2.80826,-0.0625,28.5,-16.5,0.807617,-0.0429688,-0.492676,62,13,7,-23,42,12,47,32,23051
-2.39295,-0.45707,2.81169,-11.3125,-8.6875,12.4375,0.907715,0.0410156,-0.529297,-10,-6,-24,-99,6,39,-11,29,23069
-2.41032,-0.450846,2.81964,-16.9375,-57.1875,39.3125,0.949219,0.0708008,-0.461426,-23,0,1,9,-33,-3,15,6,23086
-2.41973,-0.412836,2.82581,-13,-102.063,73.5,1.03125,0.311035,-0.310547,22,6,22,9,-9,1,56,13,23103
-2.41973,-0.412836,2.82581,-13,-102.063,73.5,1.03125,0.311035,-0.310547,24,5,-34,-62,-21,-2,-9,-4,23120
-2.42442,-0.358012,2.83175,-0.4375,-140.438,105.313,1.07568,0.393555,-0.17334,104,17,-1,31,12,-8,52,16,23137
-2.40428,-0.221193,2.83611,44.25,-157.813,146.25,1.22803,0.824707,0.777832,-25,-4,-12,-113,-31,4,-22,-8,23198
-2.33789,-0.028662,2.83466,106.75,-213.063,210.063,0.981445,1.31738,2.21582,-25,-4,-12,-113,-31,4,-22,-8,23215
-2.33789,-0.028662,2.83466,106.75,-213.063,210.063,0.981445,1.31738,2.21582,127,16,-7,54,34,3,73,77,23233
-2.28964,0.0837826,2.84183,137.375,-233.438,223.563,1,1.48291,2.69531,-80,-29,-7,13,4,4,-25,2,23250
-2.23685,0.196679,2.85874,144.375,-244,218.438,1.146,1.10645,2.53955,-99,10,-4,-45,-14,8,41,-27,23266
-2.23685,0.196679,2.85874,144.375,-244,218.438,1.146,1.10645,2.53955,59,4,-21,-126,-25,-4,87,-1,23283
-2.16889,0.351788,2.89267,64.5625,-145.25,127.25,0.849609,0.926758,2.00781,-1,-42,-28,-15,-21,-13,-90,-44,23300
-2.14787,0.405315,2.907,44.8125,-116.875,106.313,0.21875,0.992676,1.77637,-13,-6,7,78,-15,-11,-42,15,23318
-2.12551,0.459871,2.91963,49.3125,-111.438,114.313,-0.216797,0.786133,1.45898,-2,7,-7,-14,-10,-3,8,4,23335
-2.0956,0.519991,2.9323,58.25,-104.813,122.938,-0.34082,0.466797,1.0459,-7,17,-15,3,-2,-8,21,5,23354
-2.06682,0.571846,2.94137,61.4375,-82.1875,110.75,-0.424805,0.286133,0.745117,-35,-1,2,67,11,-1,35,-27,23371
-2.04252,0.624426,2.94708,38.3125,-49.375,97,-0.569824,0.0463867,0.460938,-49,-12,-4,11,-20,-8,15,27,23388
-2.03275,0.666447,2.94493,14,-17.75,75.625,-0.784668,-0.107422,0.302734,104,-19,-6,15,-17,-7,-16,8,23405
-2.03275,0.666447,2.94493,14,-17.75,75.625,-0.784668,-0.107422,0.302734,2,1,-4,-53,-27,9,-24,-49,23423
