roll,pitch,yaw, gyro_x, gyro_y, gyro_z, accel_x, accel_y, accel_z, EMG0, EMG1, EMG2, EMG3, EMG4, EMG5, EMG6, EMG7, time
0,0,0,0,0,0,0,0,0,0,0,0,0,0,0,0,0,408
-1.83955,-1.27811,-0.635712,49.4375,-39,74,0.252441,-0.439453,-0.572266,0,0,0,0,0,0,0,0,424
-1.82667,-1.2382,-0.622699,75.375,-21.0625,80.875,0.620605,-0.605469,-0.34375,0,0,0,0,0,0,0,0,442
-1.85234,-1.19638,-0.574159,62.4375,-55.5625,82.9375,1.27441,-0.773438,-0.470703,0,0,0,0,0,0,0,0,459
-1.87107,-1.15031,-0.521172,86.5,-94.4375,109.875,2.53369,-0.692871,-0.353027,0,0,0,0,0,0,0,0,476
-1.87107,-1.15031,-0.521172,86.5,-94.4375,109.875,2.53369,-0.692871,-0.353027,0,0,0,0,0,0,0,0,492
-1.86196,-0.9974,-0.399081,175.438,-155.313,193.375,2.80615,-0.852539,0.507813,0,0,0,0,0,0,0,0,509
-1.86196,-0.9974,-0.399081,175.438,-155.313,193.375,2.80615,-0.852539,0.507813,0,0,0,0,0,0,0,0,525
-1.84782,-0.922778,-0.360221,131.625,-121.375,187.375,2.41211,-0.521484,-0.255859,0,0,0,0,0,0,0,0,542
-1.84782,-0.922778,-0.360221,131.625,-121.375,187.375,2.41211,-0.521484,-0.255859,0,0,0,0,0,0,0,0,559
-1.82688,-0.797659,-0.305314,93.3125,-95.4375,158.563,2.1084,-0.319336,-0.222168,0,0,0,0,0,0,0,0,576
-1.82688,-0.797659,-0.305314,93.3125,-95.4375,158.563,2.1084,-0.319336,-0.222168,10,4,28,25,-20,-3,-40,-27,593
-1.82688,-0.797659,-0.305314,93.3125,-95.4375,158.563,2.1084,-0.319336,-0.222168,-10,-3,-2,-5,-4,0,5,1,610
-1.82243,-0.739125,-0.282924,57.375,-86.9375,150.75,2.09033,-0.222656,0.505371,-3,5,-4,-3,2,2,9,4,627
-1.82851,-0.691334,-0.258252,29.75,-91.1875,141.75,1.74365,0.0224609,-0.0786133,10,-2,3,-3,-7,-1,-11,-1,644
-1.82851,-0.691334,-0.258252,29.75,-91.1875,141.75,1.74365,0.0224609,-0.0786133,3,-6,10,12,-12,-2,-13,-7,661
-1.82545,-0.600496,-0.205014,54.25,-98.1875,112.313,0.513184,0.00878906,0.191406,-6,-6,-22,-18,11,0,12,11,709
-1.81681,-0.575623,-0.175605,67.6875,-99.6875,96.9375,0.635742,0.262207,0.124512,-6,-17,-5,-8,4,-2,-1,4,726
-1.81681,-0.575623,-0.175605,67.6875,-99.6875,96.9375,0.635742,0.262207,0.124512,-3,-10,-2,0,2,-2,-1,-1,742
-1.81681,-0.575623,-0.175605,67.6875,-99.6875,96.9375,0.635742,0.262207,0.124512,2,3,9,8,-8,-3,-6,-3,759
-1.81681,-0.575623,-0.175605,67.6875,-99.6875,96.9375,0.635742,0.262207,0.124512,6,2,3,3,0,-1,-3,-3,776
-1.76924,-0.528079,-0.128171,37.375,-25.9375,31,-0.0629883,0.657227,0.427734,-2,-2,-3,-5,-3,-2,1,1,794
-1.75724,-0.538851,-0.134647,4.8125,4.9375,-3.875,-0.112305,0.866699,0.515137,-2,-2,-3,-5,-3,-2,1,1,811
-1.75724,-0.538851,-0.134647,4.8125,4.9375,-3.875,-0.112305,0.866699,0.515137,6,28,1,3,4,-2,-2,2,828
-1.77801,-0.603216,-0.158793,-85.9375,43.0625,-81.4375,-0.155762,0.907715,0.327637,-10,4,-8,-4,-3,-1,3,-5,844
-1.80488,-0.654929,-0.176486,-107.5,69.8125,-125.625,0.0996094,0.822754,0.265137,13,7,-4,11,-2,-4,-5,2,861
-1.80488,-0.654929,-0.176486,-107.5,69.8125,-125.625,0.0996094,0.822754,0.265137,-23,-20,0,13,0,-2,-5,-8,878
-1.83588,-0.799678,-0.240218,-106.938,125.125,-185.125,0.998047,0.547852,0.0400391,19,11,11,19,-1,-2,1,2,895
-1.86793,-0.89459,-0.277197,-171,143.063,-242.125,3.18555,0.0668945,-0.304199,-27,-28,-12,-19,4,-5,5,-1,911
-1.86874,-0.990809,-0.34131,-151.625,184.25,-232.188,3.01855,-0.89502,-0.0253906,9,-3,12,0,-7,3,-2,-6,928
-1.83203,-1.07291,-0.428656,-109.813,188.313,-190.75,3.07373,-0.880859,-0.0932617,4,8,0,-10,1,2,8,4,945
-1.83203,-1.07291,-0.428656,-109.813,188.313,-190.75,3.07373,-0.880859,-0.0932617,5,15,12,79,-10,-1,-17,-7,962
-1.53603,-1.31439,-0.877376,-151,99.6875,-129.5,1.9873,-0.382813,-0.350098,2,11,2,-4,-2,-1,-4,-13,1026
-1.53603,-1.31439,-0.877376,-151,99.6875,-129.5,1.9873,-0.382813,-0.350098,-3,4,-4,2,2,-1,5,-5,1043
-1.51004,-1.34272,-0.963628,-160.813,62.1875,-84.6875,1.48389,-0.479004,-0.400879,-9,-6,-13,-6,8,-1,6,10,1061
-1.50321,-1.35552,-1.01631,-126.688,38.3125,-47.8125,0.98291,-0.703613,-0.442871,-3,-9,15,4,-19,-5,-15,-6,1077
-1.55416,-1.35146,-0.997089,-86.6875,15.9375,-23.8125,0.671875,-0.662598,-0.40332,-3,-9,15,4,-19,-5,-15,-6,1094
-1.55416,-1.35146,-0.997089,-86.6875,15.9375,-23.8125,0.671875,-0.662598,-0.40332,7,14,19,15,-14,-1,-16,-14,1111
-1.61274,-1.34336,-0.953799,-40.8125,-2.875,-3.0625,0.415527,-0.482422,-0.379395,-7,11,-14,-5,13,1,15,8,1129
-1.74667,-1.2987,-0.808763,29.625,-30.5,35.5625,-0.00830078,-0.461914,-0.531738,5,58,-16,-20,14,-1,9,3,1146
-1.74667,-1.2987,-0.808763,29.625,-30.5,35.5625,-0.00830078,-0.461914,-0.531738,-5,-36,-1,5,-2,-5,-5,-3,1163
-1.81468,-1.27106,-0.722802,49.1875,-46.8125,28.3125,-0.216309,-0.460938,-0.550781,0,-18,-4,-3,2,1,-4,2,1181
-1.88217,-1.23993,-0.631984,65.0625,-55,20.5625,-0.276855,-0.583984,-0.69043,-2,-1,7,5,-4,0,-19,-20,1197
-1.92878,-1.20573,-0.569077,47.25,-40.6875,29.6875,-0.0512695,-0.644531,-0.750488,4,15,10,1,-11,-2,-11,-8,1215
-1.92878,-1.20573,-0.569077,47.25,-40.6875,29.6875,-0.0512695,-0.644531,-0.750488,-3,-6,1,2,3,-1,-3,-6,1232
-1.96118,-1.13606,-0.517427,32.0625,-30.375,68.75,0.29834,-0.490723,-0.509277,-4,-20,-18,-23,8,1,18,11,1250
-1.96118,-1.13606,-0.517427,32.0625,-30.375,68.75,0.29834,-0.490723,-0.509277,10,2,19,24,-3,1,-13,-9,1266
-1.94221,-1.08999,-0.519042,52.125,-32.6875,96.9375,0.429199,-0.633789,-0.310547,-3,27,56,15,-10,-5,-13,-11,1283
-1.84897,-0.948355,-0.493884,121.75,-93.0625,175.375,2.45215,-0.856934,0.0722656,25,22,2,29,-9,1,10,-13,1335
-1.84897,-0.948355,-0.493884,121.75,-93.0625,175.375,2.45215,-0.856934,0.0722656,-47,-13,-118,-80,78,2,103,58,1351
-1.8357,-0.874722,-0.450902,134.938,-129.125,182.813,2.64941,-0.822266,0.116699,2,-52,27,11,-18,-9,-41,-9,1368
-1.82695,-0.810965,-0.420416,90.3125,-103.313,161.313,2.35791,-0.700684,0.171387,-4,-51,44,28,-44,-3,-67,-36,1386
-1.82306,-0.764307,-0.396269,55.1875,-90.4375,135.75,2.10303,-0.563477,0.233887,5,48,99,60,-31,-2,-31,-40,1403
-1.81513,-0.725172,-0.369132,72,-91.6875,113.125,2.02148,-0.592285,0.151855,27,59,1,1,-1,1,20,2,1420
-1.81513,-0.725172,-0.369132,72,-91.6875,113.125,2.02148,-0.592285,0.151855,10,-5,-23,-13,-3,-7,2,6,1437
-1.80956,-0.686766,-0.339502,67.875,-96.9375,113.125,1.93066,-0.312988,0.128906,-5,-11,-5,-1,-1,1,-10,3,1455
-1.80453,-0.64603,-0.305976,71,-107.75,116.563,1.58545,-0.0292969,0.176758,-3,7,11,5,-2,-2,-1,-2,1473
-1.80558,-0.605227,-0.268014,58.4375,-118.5,109.438,1.12012,0.0820313,0.166992,-4,-1,-11,-4,11,6,6,2,1491
-1.80558,-0.605227,-0.268014,58.4375,-118.5,109.438,1.12012,0.0820313,0.166992,-7,-5,-1,-1,-4,-2,-8,-5,1508
-1.80793,-0.535536,-0.188932,58.0625,-117.563,77.3125,0.575684,0.249512,0.181641,0,-2,6,1,-4,0,-4,-2,1525
-1.80793,-0.535536,-0.188932,58.0625,-117.563,77.3125,0.575684,0.249512,0.181641,-2,-18,-1,-2,-9,-3,-5,-5,1542
-1.78954,-0.49393,-0.133008,54.8125,-78.5625,50.875,0.161621,0.521973,0.368652,1,3,12,1,-3,-2,-4,-4,1558
-1.77208,-0.493585,-0.122433,43.8125,-41.75,14.25,-0.0708008,0.720703,0.499512,-3,-1,3,0,-2,-1,-2,-4,1575
-1.75852,-0.512125,-0.124943,14.375,1.125,-33.125,-0.205566,0.905273,0.534668,2,4,-6,-2,-5,-2,-1,-2,1591
-1.75766,-0.59336,-0.157937,-46.75,68.8125,-113.688,-0.043457,0.807129,0.394531,-11,15,6,-17,-1,0,1,1,1644
-1.76353,-0.652915,-0.187948,-68.125,98.3125,-146.063,0.165039,0.601074,0.20459,-11,15,6,-17,-1,0,1,1,1661
-1.76353,-0.652915,-0.187948,-68.125,98.3125,-146.063,0.165039,0.601074,0.20459,2,3,-18,0,-3,-3,-3,0,1677
-1.80978,-0.797258,-0.267084,-180.688,127.813,-179.563,1.74561,0.0966797,-0.0375977,0,-18,0,-29,9,0,11,5,1694
-1.80978,-0.797258,-0.267084,-180.688,127.813,-179.563,1.74561,0.0966797,-0.0375977,6,-28,-25,-32,7,-1,16,10,1711
-1.8382,-0.889264,-0.321214,-197.375,165.938,-229.375,2.91162,-0.364746,-0.0385742,7,14,36,31,-14,-3,-19,-8,1729
-1.82393,-0.977048,-0.38657,-109.313,172.25,-214.313,2.95313,-0.613281,0.0898438,2,-25,3,30,-17,-3,-17,-11,1747
-1.78681,-1.05204,-0.450162,-49.3125,143.75,-186.875,3.05762,-0.656738,-0.03125,-11,8,-26,-14,23,4,31,18,1764
-1.72432,-1.11949,-0.536658,-39.5,149,-168.25,2.72949,-0.510742,-0.174805,-19,-5,8,11,-4,-4,-16,-13,1781
-1.72432,-1.11949,-0.536658,-39.5,149,-168.25,2.72949,-0.510742,-0.174805,34,7,-1,-2,-8,0,-5,4,1798
-1.60808,-1.22936,-0.729072,-111.375,108.688,-135.875,2.1333,-0.425293,-0.117676,14,-3,6,8,-11,-1,-11,-6,1815
-1.56962,-1.2702,-0.822189,-141.063,89.1875,-112.5,1.85059,-0.422852,-0.1875,-13,10,-5,3,2,5,14,2,1832
-1.56962,-1.2702,-0.822189,-141.063,89.1875,-112.5,1.85059,-0.422852,-0.1875,-8,-3,-8,-2,2,1,4,3,1849
-1.51299,-1.31951,-0.965581,-108,45.8125,-61.25,0.869629,-0.531738,-0.269043,-12,-33,-10,-11,-1,-3,-10,12,1866
-1.51299,-1.31951,-0.965581,-108,45.8125,-61.25,0.869629,-0.531738,-0.269043,-13,10,33,17,-20,0,-32,-16,1883
-1.54557,-1.32509,-0.964569,-85.3125,21.625,-35.25,0.56543,-0.416992,-0.341797,-5,28,32,21,-26,-3,-29,-31,1900
-1.80084,-1.26398,-0.736326,36.5,-24.25,12.625,-0.240723,-0.568359,-0.654785,-4,-16,-11,-10,0,0,4,5,1972
-1.80084,-1.26398,-0.736326,36.5,-24.25,12.625,-0.240723,-0.568359,-0.654785,0,-5,4,3,-8,-5,-14,-1,1989
-1.85472,-1.23894,-0.662332,57.3125,-32.875,8.8125,-0.415527,-0.527344,-0.714355,-2,5,20,13,-12,-5,-20,-10,2006
-1.90409,-1.20829,-0.587726,74.8125,-41.8125,25.25,-0.205078,-0.51123,-0.8125,-8,15,-4,5,-6,-2,2,-5,2024
-1.93463,-1.17277,-0.530872,79.3125,-41.125,49.125,0.169922,-0.480469,-0.800781,-15,5,-4,9,-1,0,3,-2,2042
-1.94537,-1.1324,-0.495823,72.5,-43.375,72.6875,0.276855,-0.453125,-0.620117,-2,3,11,9,2,-1,2,2,2059
-1.93966,-1.09439,-0.479544,65.3125,-39.5,85.125,0.676758,-0.47168,-0.430664,2,-16,-16,-40,16,2,22,18,2076
-1.92444,-1.06761,-0.469815,67.4375,-45.1875,77.375,1.71582,-0.720703,-0.236328,8,-27,-16,-9,6,-6,-5,-4,2092
-1.92444,-1.06761,-0.469815,67.4375,-45.1875,77.375,1.71582,-0.720703,-0.236328,16,-5,4,4,-10,-3,-13,-6,2109
-1.91453,-1.02272,-0.44385,90,-85.375,113.75,2.28467,-0.933594,-0.0415039,15,17,35,49,-29,-5,-54,-23,2126
-1.88512,-0.949178,-0.395887,199,-140.25,175.063,2.72119,-0.996582,0.194824,-47,-56,-128,-112,68,5,77,58,2143
-1.83862,-0.876371,-0.349712,238.125,-137.625,176.688,3.11133,-0.479492,0.21875,-1,-66,-31,-11,10,-2,-36,6,2160
-1.81546,-0.810541,-0.327479,113.938,-88.6875,171.875,2.55762,-0.45459,0.26123,7,-27,99,66,-61,-6,-85,-24,2177
-1.80889,-0.748826,-0.308849,55.6875,-79,162.375,2.15381,-0.577637,0.359863,13,37,26,12,-17,-2,-20,-19,2195
-1.8024,-0.702185,-0.288498,53.625,-82.0625,140.25,2.03955,-0.50293,0.166992,-7,9,-22,-11,11,0,24,3,2211
-1.8024,-0.702185,-0.288498,53.625,-82.0625,140.25,2.03955,-0.50293,0.166992,7,-4,-14,-15,1,1,0,4,2229
-1.81172,-0.617634,-0.242526,20.1875,-88.5,126.063,1.54834,-0.0732422,0.0756836,-6,-7,-17,-10,6,-1,7,6,2286
-1.80589,-0.524917,-0.176259,78.25,-120.313,121.625,0.851074,0.208008,0.059082,-5,-12,-10,-7,6,-3,-1,2,2303
-1.78781,-0.485843,-0.14119,99.75,-113.875,101.75,0.65625,0.338379,0.0917969,-5,-11,-8,-10,6,2,8,6,2320
-1.76715,-0.464319,-0.112146,90.6875,-96.4375,81,0.373535,0.445313,0.194336,-2,-13,-10,-6,2,-2,1,2,2337
-1.74496,-0.44895,-0.093094,71.4375,-68.9375,59.875,0.145508,0.57959,0.361816,-3,-3,4,2,-4,-3,-5,-5,2359
-1.72278,-0.448497,-0.087154,42.9375,-32.3125,17.6875,-0.0483398,0.758789,0.584961,3,-21,12,-1,-3,2,-5,-3,2376
-1.70291,-0.464003,-0.0961334,14.25,11.9375,-27.5625,-0.239258,0.907715,0.645508,5,5,1,0,-1,-2,0,0,2394
-1.70291,-0.464003,-0.0961334,14.25,11.9375,-27.5625,-0.239258,0.907715,0.645508,-10,-27,-3,-1,-1,-1,-4,-3,2411
-1.69807,-0.540548,-0.144697,-56.875,74.6875,-108.375,-0.149902,0.901367,0.34082,2,-3,-10,-23,-2,-5,1,5,2429
-1.69807,-0.540548,-0.144697,-56.875,74.6875,-108.375,-0.149902,0.901367,0.34082,2,-3,-10,-23,-2,-5,1,5,2446
-1.69807,-0.540548,-0.144697,-56.875,74.6875,-108.375,-0.149902,0.901367,0.34082,-20,20,14,22,-2,-3,-13,-17,2463
-1.71358,-0.591658,-0.176649,-96.625,93.6875,-127.75,0.0170898,0.70752,0.303223,0,4,-9,8,2,1,1,1,2480
-1.7418,-0.650316,-0.218101,-150.438,119.813,-142.313,0.27832,0.47998,0.126953,0,-27,-45,-49,14,1,20,20,2497
-1.82862,-0.822402,-0.32446,-232.813,183.063,-237.5,3.1543,0.015625,-0.155762,-5,-9,0,17,6,-1,-14,0,2514
-1.82862,-0.822402,-0.32446,-232.813,183.063,-237.5,3.1543,0.015625,-0.155762,19,4,9,20,-24,-3,-29,-19,2531
-1.80499,-0.992597,-0.455928,-74.9375,165.75,-190.375,2.84424,-0.791016,0.0449219,15,38,-13,0,4,1,10,-3,2547
-1.66916,-1.12413,-0.63585,-42,145.063,-152,2.49023,-0.373535,-0.0405273,13,-18,0,-5,-2,0,-9,11,2606
-1.62539,-1.17598,-0.724598,-104.625,116.188,-128.125,2.38135,-0.274414,-0.133301,-11,1,20,8,-12,-4,-2,-3,2622
-1.61399,-1.21522,-0.796039,-157.125,83.375,-101.875,2.00439,-0.305176,-0.198242,-9,3,7,4,-8,-6,-9,-6,2639
-1.61399,-1.21522,-0.796039,-157.125,83.375,-101.875,2.00439,-0.305176,-0.198242,-2,9,7,3,-17,-4,-10,-6,2655
-1.62332,-1.24163,-0.844605,-156.563,55.1875,-73.375,1.50049,-0.493164,-0.325684,-6,8,-4,-1,6,5,15,3,2672
-1.62332,-1.24163,-0.844605,-156.563,55.1875,-73.375,1.50049,-0.493164,-0.325684,-8,-15,-17,-15,13,1,24,15,2689
-1.62332,-1.24163,-0.844605,-156.563,55.1875,-73.375,1.50049,-0.493164,-0.325684,-3,13,40,28,-30,0,-44,-17,2706
-1.72965,-1.25942,-0.845873,-60.625,-6.875,-6.6875,0.391602,-0.467285,-0.369629,25,44,45,32,-21,0,-19,-34,2723
-1.72965,-1.25942,-0.845873,-60.625,-6.875,-6.6875,0.391602,-0.467285,-0.369629,4,4,-30,-20,15,2,23,19,2740
-1.79843,-1.21864,-0.77259,32.375,-19.875,25.625,0.0644531,-0.51123,-0.480957,-5,-19,-14,-9,10,-3,2,10,2757
-1.82269,-1.19506,-0.722,77.9375,-28,20.125,-0.14502,-0.476563,-0.579102,-3,-20,-16,-13,-1,-4,-1,3,2774
-1.82269,-1.19506,-0.722,77.9375,-28,20.125,-0.14502,-0.476563,-0.579102,-4,-10,-5,-5,0,1,1,-2,2792
-1.82269,-1.19506,-0.722,77.9375,-28,20.125,-0.14502,-0.476563,-0.579102,1,7,18,13,-11,-1,-15,-14,2808
-1.89099,-1.14061,-0.600604,71.4375,-38.4375,25.875,-0.199219,-0.483887,-0.780762,-12,15,20,35,-7,-5,-14,-16,2826
-1.91206,-1.10834,-0.563163,52.8125,-29,46.125,0.0625,-0.461914,-0.726074,1,8,-7,2,-8,-1,-4,-5,2844
-1.91206,-1.10834,-0.563163,52.8125,-29,46.125,0.0625,-0.461914,-0.726074,-12,7,13,-5,3,2,6,-2,2861
-1.91832,-1.01938,-0.505633,58.5625,-35.125,58.375,1.43701,-0.683105,-0.29248,42,46,78,46,-43,-3,-57,-29,2924
-1.88786,-0.926514,-0.439077,151.063,-134.875,162.688,2.71289,-1.03418,0.0839844,-1,47,-4,-2,-14,5,26,-17,2941
-1.86285,-0.848123,-0.38223,197.313,-165.5,183.188,2.98047,-0.840332,0.161133,-70,-15,-96,-90,83,7,122,52,2959
-1.83598,-0.772813,-0.338391,168.313,-142.875,183.813,2.53467,-0.769043,0.269043,2,-66,32,17,-46,-10,-88,-24,2976
-1.8177,-0.699412,-0.307887,111,-116.25,187.188,2.3667,-0.520996,0.365234,28,-1,47,47,-19,-4,-28,-43,2993
-1.8177,-0.699412,-0.307887,111,-116.25,187.188,2.3667,-0.520996,0.365234,-4,24,-8,8,6,2,14,-2,3010
-1.79334,-0.633544,-0.284393,111.688,-95.5,171.188,2.25244,-0.383301,0.261719,-4,16,-20,-11,7,2,17,10,3027
-1.78036,-0.569787,-0.265291,67.875,-82.875,168.625,2.06494,-0.0961914,0.134277,0,-2,-13,-8,3,-2,3,6,3044
-1.77794,-0.517476,-0.244604,34.75,-87.75,161,1.65186,0.0561523,0.197266,1,1,4,7,-5,-3,-12,-2,3062
-1.77846,-0.466295,-0.219129,30.5625,-98.5625,149.063,1.23193,0.0234375,0.162598,-3,-3,-10,-1,1,0,5,1,3079
-1.77579,-0.415977,-0.189169,42.3125,-109.563,139.813,0.919434,0.118652,0.135742,-11,-14,-16,-11,8,1,13,8,3096
-1.76458,-0.372732,-0.157954,65.75,-108.125,118,0.68457,0.324707,0.0820313,-9,-10,-8,-9,6,0,3,4,3114
-1.76458,-0.372732,-0.157954,65.75,-108.125,118,0.68457,0.324707,0.0820313,-3,-11,-7,-7,0,-1,4,0,3131
-1.75009,-0.346761,-0.128275,71.6875,-98.8125,93.4375,0.384766,0.469238,0.0742188,-4,-9,-1,2,1,-1,-4,-4,3148
-1.7329,-0.327874,-0.103819,68.25,-79.4375,62.25,0.126953,0.557129,0.150879,-1,-5,1,1,-2,1,-3,-3,3165
-1.71547,-0.320697,-0.0885603,49.75,-50.4375,24.3125,-0.0786133,0.723633,0.326172,9,1,-6,-5,-3,-2,0,2,3183
-1.7013,-0.396057,-0.112912,-54.25,48.625,-106,-0.271973,1.00684,0.515137,25,8,-12,11,0,-3,2,1,3248
-1.71864,-0.453845,-0.131371,-75.1875,68.125,-149.563,0.0341797,0.915039,0.38623,-3,4,-15,-6,-6,-4,-2,2,3265
-1.74096,-0.529173,-0.160031,-103.813,102.813,-189.313,0.383301,0.808105,0.241211,8,-22,0,-1,4,0,9,11,3282
-1.77913,-0.617934,-0.194725,-163.75,130.125,-234.375,1.63135,0.718262,-0.0776367,-8,-3,-27,1,6,3,1,-2,3299
-1.77913,-0.617934,-0.194725,-163.75,130.125,-234.375,1.63135,0.718262,-0.0776367,1,17,4,26,1,-4,-9,6,3317
-1.82107,-0.734272,-0.244531,-209.75,184.313,-299.938,3.26758,0.0488281,-0.243652,-21,-10,20,20,2,-3,-1,-6,3334
-1.82687,-0.945276,-0.371459,-106.125,181.313,-241,3.09619,-0.834473,0.0224609,14,10,8,-2,-9,-4,-6,-6,3352
-1.82687,-0.945276,-0.371459,-106.125,181.313,-241,3.09619,-0.834473,0.0224609,-52,16,23,22,-14,-2,-23,-14,3369
-1.77922,-1.03376,-0.448036,-47.6875,175.875,-219.313,2.90527,-0.584961,-0.0761719,-6,23,17,16,-25,-4,-18,-9,3386
-1.71707,-1.1096,-0.53815,-47.875,159.875,-191.438,2.81641,-0.286621,-0.10791,62,7,5,-4,-9,-2,-16,-26,3403
-1.66906,-1.17387,-0.632416,-107.5,133.688,-168.75,2.49316,-0.18457,-0.149902,-2,21,2,-3,-5,-2,9,-6,3420
-1.65981,-1.22947,-0.712404,-185.438,100.625,-142.25,2.03906,-0.186035,-0.26416,-16,14,-12,-10,1,0,9,4,3438
-1.65887,-1.26911,-0.782925,-189.313,78.3125,-109.875,1.45215,-0.540039,-0.296875,-18,-20,-17,-14,4,-1,4,17,3455
-1.66808,-1.29573,-0.83177,-156.938,52.0625,-77.625,0.893066,-0.629395,-0.385254,-23,-28,-23,-16,17,2,26,23,3473
-1.66808,-1.29573,-0.83177,-156.938,52.0625,-77.625,0.893066,-0.629395,-0.385254,-3,10,36,22,-23,-3,-33,-24,3489
-1.6945,-1.31157,-0.844546,-111.5,21.8125,-50.5625,0.626953,-0.484863,-0.436523,12,26,21,14,-9,1,-9,-20,3506
-1.85114,-1.25925,-0.707491,29.9375,-24.375,23.5625,-0.0395508,-0.593262,-0.508301,1,-1,-2,-3,0,0,4,-4,3569
-1.88651,-1.23773,-0.651673,59.375,-27.6875,6.75,-0.216309,-0.513672,-0.572754,-1,0,6,5,1,0,1,-1,3586
-1.88651,-1.23773,-0.651673,59.375,-27.6875,6.75,-0.216309,-0.513672,-0.572754,10,2,4,-1,-3,-1,-7,-1,3603
-1.96671,-1.18371,-0.526875,62.0625,-38.0625,21.0625,-0.164551,-0.578125,-0.789063,9,13,19,16,-12,-3,-12,-11,3620
-1.99302,-1.14723,-0.48284,54.1875,-38.6875,47.4375,0.17041,-0.523926,-0.787598,11,17,14,7,-15,-2,-12,-11,3637
-1.99302,-1.14723,-0.48284,54.1875,-38.6875,47.4375,0.17041,-0.523926,-0.787598,-19,34,21,8,-11,1,-3,-5,3654
-1.99302,-1.14723,-0.48284,54.1875,-38.6875,47.4375,0.17041,-0.523926,-0.787598,-18,46,14,-11,-2,0,10,4,3671
-1.9781,-1.07974,-0.452102,77.6875,-33.875,73.375,0.632813,-0.445801,-0.316406,-7,-22,-55,-51,28,2,45,31,3687
-1.9563,-1.05312,-0.441232,89.625,-45.75,72.1875,1.46387,-0.648926,-0.276855,-8,-39,-32,-42,24,0,18,25,3703
-1.9563,-1.05312,-0.441232,89.625,-45.75,72.1875,1.46387,-0.648926,-0.276855,8,-13,64,33,-12,2,-9,-10,3720
-1.9563,-1.05312,-0.441232,89.625,-45.75,72.1875,1.46387,-0.648926,-0.276855,68,52,87,29,-62,-5,-55,-41,3737
-1.91663,-0.926801,-0.3661,188.813,-142,183.75,2.73389,-0.764648,0.133301,-69,8,-84,-55,61,1,111,51,3755
-1.91663,-0.926801,-0.3661,188.813,-142,183.75,2.73389,-0.764648,0.133301,8,-51,-29,-16,23,1,-6,12,3772
-1.91663,-0.926801,-0.3661,188.813,-142,183.75,2.73389,-0.764648,0.133301,13,22,86,79,-52,-3,-88,-47,3789
-1.8411,-0.704553,-0.290003,35.625,-85.25,197.563,2.21191,-0.506836,0.390625,40,56,38,45,-32,1,-34,-27,3806
-1.8251,-0.631684,-0.273297,75.1875,-90.375,191.938,2.14404,-0.753418,0.230957,-4,68,4,24,-5,2,12,-13,3824
-1.80256,-0.432267,-0.226114,27.625,-88.6875,183.438,1.50781,-0.00390625,0.142578,10,27,-7,-2,0,-2,8,7,3877
-1.80256,-0.432267,-0.226114,27.625,-88.6875,183.438,1.50781,-0.00390625,0.142578,-12,-19,-10,-5,3,1,3,3,3895
-1.77357,-0.314506,-0.181677,74.625,-103.625,155.438,0.61377,0.22998,0.146484,-8,-21,-13,-11,1,-4,-1,3,3912
-1.77357,-0.314506,-0.181677,74.625,-103.625,155.438,0.61377,0.22998,0.146484,-1,-11,2,4,3,1,-7,-1,3929
-1.74955,-0.269048,-0.158681,87.25,-88.25,123,0.321777,0.418945,0.0883789,0,-2,7,3,-2,-2,-3,-3,3945
-1.74955,-0.269048,-0.158681,87.25,-88.25,123,0.321777,0.418945,0.0883789,1,-1,2,3,-5,-2,-4,-2,3963
-1.70301,-0.225919,-0.135645,57.5,-27.625,37.8125,-0.145508,0.878418,0.22998,0,-10,-10,-7,-2,-2,2,0,3979
-1.68524,-0.22794,-0.137579,41.125,4.25,-8,-0.30127,1.11621,0.263184,6,-9,-8,-4,-3,-2,2,0,3996
-1.68524,-0.22794,-0.137579,41.125,4.25,-8,-0.30127,1.11621,0.263184,0,-37,7,-9,0,0,-1,1,4013
-1.68524,-0.22794,-0.137579,41.125,4.25,-8,-0.30127,1.11621,0.263184,-2,-2,-12,-2,-2,0,-2,0,4029
-1.67061,-0.285882,-0.158032,-18.0625,36.0625,-99.4375,-0.164063,0.973633,0.30127,-14,-11,3,-12,6,1,7,0,4046
-1.68719,-0.336052,-0.169439,-60.125,44.625,-132.688,0.183105,0.71875,0.255371,17,39,12,-11,-5,-3,-1,3,4064
-1.68719,-0.336052,-0.169439,-60.125,44.625,-132.688,0.183105,0.71875,0.255371,-19,-12,-18,-25,1,-2,7,0,4081
-1.7414,-0.477262,-0.207474,-114.438,87,-193.313,1.28906,0.668945,0.0566406,-21,-14,-15,-2,4,0,3,0,4098
-1.7414,-0.477262,-0.207474,-114.438,87,-193.313,1.28906,0.668945,0.0566406,-3,-10,-10,-5,9,-1,3,3,4114
-1.79202,-0.572573,-0.230993,-178.938,110.313,-256.75,3.06592,0.216309,-0.151855,9,40,13,27,-3,-5,-14,-4,4131
-1.86619,-0.855685,-0.337372,-88.25,143.313,-221.625,2.78174,-0.585938,-0.0390625,2,38,2,6,-1,3,14,7,4193
-1.86619,-0.855685,-0.337372,-88.25,143.313,-221.625,2.78174,-0.585938,-0.0390625,43,-6,-19,-18,13,0,21,12,4211
-1.86169,-1.01514,-0.417072,-94.8125,125.313,-189.875,2.84033,-0.220703,-0.26416,8,-37,-37,-23,21,1,24,11,4227
-1.88284,-1.08298,-0.452673,-147.938,104.688,-156.563,2.18994,-0.176758,-0.208008,-11,-34,-15,-9,8,-2,6,5,4245
-1.88284,-1.08298,-0.452673,-147.938,104.688,-156.563,2.18994,-0.176758,-0.208008,-39,3,14,9,6,3,-1,-3,4261
-1.95054,-1.17307,-0.504497,-160.5,70.375,-96.375,0.879883,-0.53418,-0.265137,-17,-8,-22,-18,20,2,33,23,4278
-1.99044,-1.20034,-0.512689,-135.688,41.125,-71,0.670898,-0.378418,-0.270508,24,11,50,42,-41,-2,-50,-30,4296
-1.99044,-1.20034,-0.512689,-135.688,41.125,-71,0.670898,-0.378418,-0.270508,0,47,24,21,-15,-4,-8,-19,4313
-1.99044,-1.20034,-0.512689,-135.688,41.125,-71,0.670898,-0.378418,-0.270508,-18,-31,-72,-60,39,-1,48,49,4329
-2.0704,-1.21315,-0.49297,-63,11.125,-21,0.355469,-0.507324,-0.525879,-10,-49,-17,-16,2,-7,-15,10,4347
-2.0912,-1.19719,-0.477881,-14,-0.1875,-5.875,0.147461,-0.644043,-0.586426,13,-6,13,11,0,-1,-4,0,4364
-2.0912,-1.19719,-0.477881,-14,-0.1875,-5.875,0.147461,-0.644043,-0.586426,4,-8,1,-3,-3,2,3,2,4381
-2.12826,-1.15608,-0.415036,49.3125,-18.5625,-5.375,-0.250488,-0.54834,-0.742676,4,2,6,2,0,0,1,-4,4398
-2.13821,-1.12421,-0.387177,54.1875,-21.8125,11.375,-0.232422,-0.686523,-0.820801,14,8,6,5,0,0,-5,-3,4415
-2.13821,-1.12421,-0.387177,54.1875,-21.8125,11.375,-0.232422,-0.686523,-0.820801,16,6,3,-3,-5,-1,-2,-5,4432
-2.13821,-1.12421,-0.387177,54.1875,-21.8125,11.375,-0.232422,-0.686523,-0.820801,-3,25,28,25,-23,-1,-23,-13,4449
-2.11655,-1.01674,-0.351746,64,-42.9375,70,0.388184,-0.523438,-0.440918,27,-53,26,1,-7,-2,-22,-8,4503
-2.03367,-0.95469,-0.36535,120.625,-54.0625,103.063,1.94434,-0.700684,-0.0839844,30,28,52,50,-31,-2,-37,-27,4520
-2.03367,-0.95469,-0.36535,120.625,-54.0625,103.063,1.94434,-0.700684,-0.0839844,-8,38,43,64,-41,-2,-47,-60,4537
-1.98338,-0.881347,-0.354536,168.813,-106,182.375,2.53857,-0.705078,0.0444336,-3,62,-34,-8,17,1,47,-11,4554
-1.98338,-0.881347,-0.354536,168.813,-106,182.375,2.53857,-0.705078,0.0444336,-12,-87,-86,-87,50,-2,45,66,4572
-1.90687,-0.711293,-0.315374,114.313,-107.375,216.688,2.96631,-0.480957,0.182129,2,-103,4,-11,-25,-8,-61,10,4588
-1.89331,-0.629854,-0.308589,51,-89.9375,216.188,2.54102,-0.393555,0.314941,-2,36,48,32,-13,3,-3,-26,4605
-1.89331,-0.629854,-0.308589,51,-89.9375,216.188,2.54102,-0.393555,0.314941,28,7,-7,-4,-3,-2,-9,-4,4621
-1.89331,-0.629854,-0.308589,51,-89.9375,216.188,2.54102,-0.393555,0.314941,-27,4,-9,-18,5,-1,24,3,4639
-1.89331,-0.629854,-0.308589,51,-89.9375,216.188,2.54102,-0.393555,0.314941,-2,-3,2,7,-11,-4,-14,-5,4657
-1.84066,-0.412068,-0.271492,50.6875,-90.6875,183.625,1.86279,-0.0126953,0.116211,29,5,12,11,-10,-4,-14,-5,4674
-1.84066,-0.412068,-0.271492,50.6875,-90.6875,183.625,1.86279,-0.0126953,0.116211,-6,4,-13,-13,11,3,21,9,4690
-1.80886,-0.291818,-0.232913,71.75,-101.563,166.813,0.953125,0.228027,0.177246,-13,-11,-20,-17,19,2,9,8,4707
-1.78547,-0.240352,-0.210256,83.6875,-97.5625,143.938,0.778809,0.42627,0.0874023,-9,-9,-11,-10,10,0,3,5,4724
-1.78547,-0.240352,-0.210256,83.6875,-97.5625,143.938,0.778809,0.42627,0.0874023,-7,-8,-6,-4,-1,0,-3,1,4741
-1.78547,-0.240352,-0.210256,83.6875,-97.5625,143.938,0.778809,0.42627,0.0874023,-3,-6,10,-1,0,0,-1,-2,4758
-1.78547,-0.240352,-0.210256,83.6875,-97.5625,143.938,0.778809,0.42627,0.0874023,6,16,-2,-3,-3,-1,-2,0,4825
-1.68244,-0.146588,-0.156678,-27.9375,15.8125,-56.125,-0.176758,0.857422,0.349121,-12,-11,2,6,-2,-1,-4,-5,4842
-1.68244,-0.146588,-0.156678,-27.9375,15.8125,-56.125,-0.176758,0.857422,0.349121,-12,-11,2,6,-2,-1,-4,-5,4858
-1.68244,-0.146588,-0.156678,-27.9375,15.8125,-56.125,-0.176758,0.857422,0.349121,-8,-31,-12,-2,3,1,2,1,4875
-1.68244,-0.146588,-0.156678,-27.9375,15.8125,-56.125,-0.176758,0.857422,0.349121,-9,10,-19,17,1,-3,-10,-9,4892
-1.68244,-0.146588,-0.156678,-27.9375,15.8125,-56.125,-0.176758,0.857422,0.349121,21,55,-6,-9,-1,2,0,7,4909
-1.68244,-0.146588,-0.156678,-27.9375,15.8125,-56.125,-0.176758,0.857422,0.349121,0,14,26,-7,4,1,3,7,4927
-1.84369,-0.479672,-0.266906,-156.25,176.25,-256.063,2.54932,-0.549316,0.0649414,-9,-27,15,-10,-11,-5,-5,-6,4944
-1.86526,-0.576384,-0.312829,-127.688,186.75,-234.375,2.98584,-0.84668,0.0844727,6,-9,0,21,-10,1,-11,-6,4962
-1.86526,-0.576384,-0.312829,-127.688,186.75,-234.375,2.98584,-0.84668,0.0844727,7,-14,-6,12,-5,-1,-5,-5,4980
-1.86526,-0.576384,-0.312829,-127.688,186.75,-234.375,2.98584,-0.84668,0.0844727,7,10,21,16,-21,-6,-26,-17,4998
-1.84389,-0.750981,-0.412436,-51.6875,174,-202.313,2.85693,-0.631348,-0.0258789,-1,22,-8,-6,2,1,12,-6,5015
-1.84389,-0.750981,-0.412436,-51.6875,174,-202.313,2.85693,-0.631348,-0.0258789,10,16,-21,-7,11,2,24,22,5031
-1.82759,-0.829638,-0.463545,-57.25,158.063,-190.438,2.66699,-0.363281,-0.0283203,-6,-22,-30,-16,18,1,20,13,5049
-1.82759,-0.829638,-0.463545,-57.25,158.063,-190.438,2.66699,-0.363281,-0.0283203,-13,-38,-4,0,-1,-3,-11,3,5066
-1.82759,-0.829638,-0.463545,-57.25,158.063,-190.438,2.66699,-0.363281,-0.0283203,-10,-17,-23,-19,20,3,34,24,5082
-1.97316,-1.03773,-0.555615,-162.813,36.6875,-69.8125,0.814941,-0.649902,-0.39209,11,42,28,23,-13,2,-4,-24,5146
-1.97316,-1.03773,-0.555615,-162.813,36.6875,-69.8125,0.814941,-0.649902,-0.39209,-7,-20,-19,-14,6,0,1,7,5163
-2.04588,-1.04254,-0.542628,-10.75,-4.1875,-2.875,0.175293,-0.52002,-0.450195,-6,-17,-3,-2,2,-2,-3,0,5180
-2.05926,-1.00529,-0.507654,43.875,-14.25,-1.8125,-0.185547,-0.540039,-0.594238,-1,-11,-2,-3,1,-2,0,3,5199
-2.05926,-1.00529,-0.507654,43.875,-14.25,-1.8125,-0.185547,-0.540039,-0.594238,2,-7,5,1,-3,-1,-7,-8,5216
-2.06119,-0.982822,-0.486946,56,-15.8125,-1.5,-0.279785,-0.592285,-0.660645,9,10,12,10,-10,-1,-14,-11,5232
-2.06119,-0.982822,-0.486946,56,-15.8125,-1.5,-0.279785,-0.592285,-0.660645,-4,21,23,15,-4,-2,-2,-10,5249
-2.06119,-0.982822,-0.486946,56,-15.8125,-1.5,-0.279785,-0.592285,-0.660645,-6,4,-6,-9,-1,1,8,0,5266
-2.06119,-0.982822,-0.486946,56,-15.8125,-1.5,-0.279785,-0.592285,-0.660645,2,-6,-13,-25,4,2,10,11,5284
-2.0497,-0.892875,-0.446755,54.625,-29.6875,65.3125,0.222168,-0.370117,-0.612305,-3,-10,-40,-6,6,0,6,4,5302
-2.00036,-0.854336,-0.452349,70.3125,-18.5625,68.125,1.521,-0.749512,-0.217773,10,-10,-24,-13,5,0,-2,3,5319
-2.00036,-0.854336,-0.452349,70.3125,-18.5625,68.125,1.521,-0.749512,-0.217773,-5,3,19,19,3,1,-6,-1,5335
-1.9756,-0.814469,-0.44547,81.8125,-67.8125,110.5,2.0957,-0.885254,-0.0605469,-12,12,52,41,-20,0,-32,-16,5352
-1.9756,-0.814469,-0.44547,81.8125,-67.8125,110.5,2.0957,-0.885254,-0.0605469,-51,-3,-70,-50,65,4,88,53,5369
-1.87049,-0.668656,-0.386664,232.125,-144.688,188.438,2.6084,-0.620117,0.255859,-10,-48,-47,-50,28,-2,22,38,5386
-1.83687,-0.591565,-0.359357,142.813,-122.75,194.813,2.50244,-0.376465,0.116699,-9,-57,-7,-22,7,0,-13,17,5403
-1.7927,-0.439701,-0.313247,109.75,-103.063,190.438,2.28125,-0.402832,0.314453,-3,21,-7,-13,-6,1,12,4,5457
-1.76901,-0.372166,-0.293818,90.25,-90.4375,178.75,2.08838,-0.272949,0.11084,-4,5,-24,-21,4,0,14,14,5474
-1.76901,-0.372166,-0.293818,90.25,-90.4375,178.75,2.08838,-0.272949,0.11084,-1,-7,-12,-14,5,-1,5,5,5491
-1.76901,-0.372166,-0.293818,90.25,-90.4375,178.75,2.08838,-0.272949,0.11084,3,-17,-6,-10,2,1,3,7,5508
-1.74418,-0.204641,-0.225739,36.9375,-97.5625,147,1.14746,0.125488,0.16748,-3,-11,3,-7,4,4,-4,1,5525
-1.74418,-0.204641,-0.225739,36.9375,-97.5625,147,1.14746,0.125488,0.16748,-4,-9,-5,-8,2,-2,4,3,5541
-1.72142,-0.120343,-0.171789,39.875,-93.6875,107.938,0.471191,0.509277,0.20166,-5,-6,-5,-2,2,1,1,0,5559
-1.72142,-0.120343,-0.171789,39.875,-93.6875,107.938,0.471191,0.509277,0.20166,-1,-2,2,3,-6,-3,-2,-5,5576
-1.71036,-0.0917564,-0.150173,25.875,-75.0625,77.1875,0.0214844,0.585449,0.26416,-2,-4,3,4,-4,-2,-4,-3,5593
-1.71036,-0.0917564,-0.150173,25.875,-75.0625,77.1875,0.0214844,0.585449,0.26416,2,9,3,3,-3,1,-2,-2,5610
-1.70024,-0.0736545,-0.129056,-13.125,-19.0625,-12.5,-0.236328,0.837891,0.40625,0,1,1,3,-3,-1,-3,-2,5627
-1.70024,-0.0736545,-0.129056,-13.125,-19.0625,-12.5,-0.236328,0.837891,0.40625,3,1,-3,-3,-5,1,2,1,5645
-1.70378,-0.0855307,-0.130523,-29.375,8.625,-43.6875,-0.219727,0.735352,0.380371,-1,5,-4,-8,-1,0,5,1,5663
-1.70378,-0.0855307,-0.130523,-29.375,8.625,-43.6875,-0.219727,0.735352,0.380371,-6,3,-10,6,-3,2,-3,-3,5681
-1.73282,-0.154107,-0.148675,-54.5625,47.5,-107,0.192383,0.734375,0.262207,-6,-12,-11,-28,1,1,3,2,5697
-1.73282,-0.154107,-0.148675,-54.5625,47.5,-107,0.192383,0.734375,0.262207,4,-9,-18,-15,4,-2,8,10,5714
-1.89227,-0.435707,-0.272395,-164.125,194.25,-208.5,2.6543,-0.594727,0.0200195,1,9,0,-4,-1,0,5,-5,5775
-1.89227,-0.435707,-0.272395,-164.125,194.25,-208.5,2.6543,-0.594727,0.0200195,-15,6,-10,5,1,-6,-13,-4,5793
-1.90022,-0.593065,-0.380624,-61.75,195.688,-158.313,2.73389,-1.09961,-0.146484,15,39,39,13,-25,0,-29,-24,5810
-1.88412,-0.661122,-0.432779,-41.5,176.313,-146.563,2.5415,-0.879395,-0.14502,18,43,18,9,-21,-4,-18,-13,5827
-1.88412,-0.661122,-0.432779,-41.5,176.313,-146.563,2.5415,-0.879395,-0.14502,-1,25,-17,-14,6,-2,17,9,5844
-1.87177,-0.782521,-0.515173,-77.5625,121.313,-122.625,1.99023,-0.273926,-0.137695,-2,2,-14,-7,2,0,6,4,5861
-1.89217,-0.83261,-0.544391,-117.438,96.125,-105.875,1.52441,-0.334961,-0.196777,-8,-16,-16,-15,9,-1,12,12,5878
-1.89217,-0.83261,-0.544391,-117.438,96.125,-105.875,1.52441,-0.334961,-0.196777,-11,-23,-17,-18,14,-1,10,14,5895
-1.89217,-0.83261,-0.544391,-117.438,96.125,-105.875,1.52441,-0.334961,-0.196777,-6,-23,16,12,-14,-4,-30,-11,5912
-1.95693,-0.894581,-0.576007,-120.625,43.5625,-56.375,0.700684,-0.384766,-0.282227,6,8,32,32,-20,-1,-26,-23,5930
-1.98995,-0.907689,-0.580124,-102.688,24,-32.6875,0.468262,-0.39209,-0.32666,4,28,9,10,-5,-1,-2,-10,5947
-1.98995,-0.907689,-0.580124,-102.688,24,-32.6875,0.468262,-0.39209,-0.32666,2,15,-4,-5,0,3,8,-1,5963
-2.03303,-0.894558,-0.576304,-27.375,2.8125,5.3125,0.120605,-0.543457,-0.470215,-8,0,-28,-25,17,1,28,15,5980
-2.03303,-0.894558,-0.576304,-27.375,2.8125,5.3125,0.120605,-0.543457,-0.470215,-3,-9,5,-10,7,-4,2,12,5997
-2.02965,-0.875126,-0.57171,29.25,-2.8125,14.1875,-0.081543,-0.533203,-0.514648,-2,-20,5,-2,-5,-2,-12,-8,6013
-2.02965,-0.875126,-0.57171,29.25,-2.8125,14.1875,-0.081543,-0.533203,-0.514648,4,-1,5,8,-9,-1,-10,-8,6031
-1.98189,-0.83705,-0.525452,86.875,-21.375,-2.3125,-0.0395508,-0.566895,-0.938965,14,-1,7,-13,-4,-5,6,6,6080
-1.99588,-0.792761,-0.486189,34.6875,-35.375,45.8125,0.612793,-0.518555,-0.620117,7,7,-29,-12,-2,0,4,-1,6097
-1.97079,-0.790634,-0.488561,60.0625,-20,39.6875,1.49561,-0.724121,-0.153809,-3,6,15,24,9,0,5,4,6114
-1.97079,-0.790634,-0.488561,60.0625,-20,39.6875,1.49561,-0.724121,-0.153809,-1,-27,-41,-18,-5,-3,-10,-1,6132
-1.92185,-0.706924,-0.437928,146.75,-145.625,148.625,2.49561,-0.824707,0.0908203,14,26,44,11,-16,1,-20,-14,6149
-1.92185,-0.706924,-0.437928,146.75,-145.625,148.625,2.49561,-0.824707,0.0908203,-13,14,-17,-28,21,4,46,15,6166
-1.88724,-0.629643,-0.39089,182.25,-172.688,174.5,2.83838,-0.781738,0.155762,-31,-42,-64,-56,33,-1,49,30,6183
-1.85789,-0.553169,-0.348708,151.813,-161.313,179.438,2.66016,-0.539551,0.211426,9,-16,47,6,-14,-4,-36,-14,6200
-1.84141,-0.474875,-0.307617,105.063,-160.188,187.625,2.44873,-0.354004,0.391602,33,15,51,41,-42,-3,-60,-52,6216
-1.81069,-0.404431,-0.275141,127.313,-132.625,173.813,2.26563,-0.28418,0.243164,29,82,35,27,-16,4,1,-11,6232
-1.81069,-0.404431,-0.275141,127.313,-132.625,173.813,2.26563,-0.28418,0.243164,-9,23,1,8,-4,0,6,-3,6249
-1.78808,-0.340261,-0.248465,92.75,-111.25,163.125,2.03271,-0.165527,0.226563,-9,23,1,8,-4,0,6,-3,6266
-1.77226,-0.277386,-0.221099,69.125,-110.438,160.813,1.68945,0.0170898,0.262207,-2,-18,-27,-25,7,0,10,7,6284
-1.77226,-0.277386,-0.221099,69.125,-110.438,160.813,1.68945,0.0170898,0.262207,5,-9,2,1,1,0,-5,-2,6301
-1.75761,-0.226806,-0.19091,60.75,-115.063,147.375,1.28125,0.118164,0.179688,5,-9,2,1,1,0,-5,-2,6318
-1.74367,-0.180943,-0.160669,55.8125,-110.688,131.375,0.992188,0.265137,0.109375,-6,-17,-2,-1,0,-4,-5,0,6335
-1.6582,-0.0734016,-0.0651015,55.4375,-45.375,48.3125,-0.0581055,0.618164,0.390137,-2,-1,3,2,-1,0,-5,-4,6402
-1.6582,-0.0734016,-0.0651015,55.4375,-45.375,48.3125,-0.0581055,0.618164,0.390137,5,-1,-2,-4,-3,-3,1,0,6419
-1.6353,-0.0662611,-0.0609548,39.0625,-14.4375,10.125,-0.194824,0.79541,0.461426,0,-3,-6,-4,3,3,-1,1,6436
-1.62233,-0.0752214,-0.0653819,12.375,12.6875,-31.1875,-0.152832,0.842285,0.393555,3,22,-6,-9,-1,-2,1,2,6454
-1.62414,-0.10067,-0.0762686,-26.4375,33.125,-66.75,-0.0200195,0.841309,0.322266,-6,5,5,-12,-3,-3,-5,-5,6471
-1.64408,-0.138389,-0.0926216,-67.625,52.25,-100.125,0.159668,0.861816,0.352539,4,-13,5,25,3,1,-1,1,6488
-1.67722,-0.19138,-0.118725,-110.938,85.75,-135.875,0.400391,0.637207,0.291016,-14,-26,-24,4,4,-2,7,1,6505
-1.72729,-0.264164,-0.153027,-165,119.5,-174.188,1.0957,0.436035,0.0698242,4,-35,-51,2,5,-1,5,5,6522
-1.77634,-0.359234,-0.196756,-179.313,166.688,-246.563,2.85352,-0.00244141,-0.152832,-6,3,16,5,13,-1,11,9,6538
-1.80801,-0.458014,-0.253805,-155.688,208.688,-243.5,2.92432,-0.604004,0.141602,13,-19,-3,-4,-7,4,-15,3,6555
-1.81471,-0.547257,-0.306871,-92.75,190.75,-216.688,3.04395,-0.833008,0.0664063,7,9,-1,-12,2,2,9,11,6572
-1.81471,-0.547257,-0.306871,-92.75,190.75,-216.688,3.04395,-0.833008,0.0664063,4,1,24,11,-16,-1,-18,-11,6589
-1.80004,-0.627523,-0.361757,-44.875,181.063,-193.125,2.83252,-0.717773,-0.0620117,8,47,46,33,-30,-1,-31,-31,6606
-1.78054,-0.69976,-0.414459,-37.1875,161.188,-176,2.53369,-0.471191,-0.00732422,-5,48,-2,-7,7,3,25,-1,6623
-1.77343,-0.764426,-0.460727,-68.125,134.5,-161.125,2.40527,-0.216797,-0.103516,4,15,-20,-21,8,0,8,11,6640
-1.77343,-0.764426,-0.460727,-68.125,134.5,-161.125,2.40527,-0.216797,-0.103516,15,-6,-1,-4,-1,-2,7,-15,6657
-1.95181,-0.926309,-0.531482,-126.125,39.125,-62.5625,0.655762,-0.60498,-0.491699,8,-3,50,39,-32,-5,-55,-40,6721
-1.97841,-0.934188,-0.533016,-72.5625,28.5,-38,0.407227,-0.600586,-0.44043,7,26,31,22,-15,1,-9,-18,6738
-1.98767,-0.928268,-0.533973,-21.125,16.25,-7.8125,0.265625,-0.607422,-0.464355,10,14,-5,-5,1,0,4,0,6755
-1.98689,-0.914769,-0.530709,20.625,8.0625,4.0625,0.0600586,-0.569336,-0.541992,-2,-3,-16,-13,8,-1,17,8,6772
-1.98689,-0.914769,-0.530709,20.625,8.0625,4.0625,0.0600586,-0.569336,-0.541992,-11,-23,-21,-21,12,-1,11,14,6789
-1.98497,-0.900821,-0.517605,48.3125,-3.5,-6.125,-0.110352,-0.535156,-0.577637,-1,-19,-7,-10,1,-2,-5,5,6806
-1.98977,-0.886178,-0.496558,50.1875,-13.1875,-13.5625,-0.186035,-0.559082,-0.652832,2,-2,6,8,-8,0,-14,-13,6824
-1.9989,-0.86702,-0.472851,46.4375,-19.9375,-1.4375,-0.0869141,-0.571777,-0.758789,4,2,2,10,-11,-2,-10,-12,6842
-2.00269,-0.840384,-0.456301,44.1875,-23.1875,29.75,0.0600586,-0.56543,-0.726563,10,15,13,17,-9,0,-14,-13,6859
-1.9982,-0.808587,-0.447726,44.25,-28.1875,56.3125,0.17334,-0.538574,-0.557129,-4,22,20,28,-12,-2,-8,-12,6876
-1.98288,-0.783177,-0.445597,52.5,-30.4375,67.25,0.695801,-0.59668,-0.344727,-13,28,39,4,13,2,22,10,6893
-1.98288,-0.783177,-0.445597,52.5,-30.4375,67.25,0.695801,-0.59668,-0.344727,-7,-33,-52,-42,15,-1,18,18,6910
-1.95249,-0.783753,-0.444681,84.625,-28.375,51.9375,1.81104,-0.604492,-0.155273,10,-6,-22,-39,1,2,5,12,6927
-1.91543,-0.748217,-0.426272,139.5,-81.875,99.6875,2.1748,-0.680176,0.0229492,2,3,4,21,-30,-2,-19,-23,6944
-1.87293,-0.671267,-0.389873,189.5,-144.938,183.875,2.59766,-0.937988,0.242188,-5,18,-47,-14,31,6,55,21,6962
-1.84369,-0.591571,-0.345673,158.75,-163,189.938,2.92725,-0.61377,0.307617,-26,-17,-66,-62,41,4,60,35,6979
-1.80847,-0.364353,-0.277195,57.5625,-94.25,184.25,2.11963,-0.344238,0.225586,4,57,-8,-6,5,3,35,1,7043
-1.79797,-0.296733,-0.263072,43.25,-82.0625,179.625,1.94434,0.015625,0.212891,-24,17,-53,-43,26,2,52,25,7059
-1.79113,-0.232582,-0.247081,31.875,-83.875,169.563,1.60742,-0.00683594,0.242188,-14,-24,-15,-8,-3,-5,-12,5,7076
-1.78141,-0.175913,-0.228748,34.6875,-90.3125,168.313,1.26074,0.0146484,0.214355,18,-9,6,4,-5,-5,-10,-3,7093
-1.78141,-0.175913,-0.228748,34.6875,-90.3125,168.313,1.26074,0.0146484,0.214355,6,1,16,7,-9,-4,-10,-4,7111
-1.76649,-0.121004,-0.208986,47.875,-90.1875,158.25,0.908691,0.158691,0.199219,6,1,16,7,-9,-4,-10,-4,7128
-1.74672,-0.0714043,-0.188325,61.3125,-86.875,141,0.709473,0.333984,0.131836,-3,19,6,-13,10,1,10,6,7145
-1.74672,-0.0714043,-0.188325,61.3125,-86.875,141,0.709473,0.333984,0.131836,-8,-18,-15,-5,-1,-3,-3,2,7161
-1.72409,-0.027819,-0.169499,65.3125,-74.5625,119.813,0.311035,0.459961,0.181641,-2,-5,-7,3,-4,-4,-5,-4,7178
-1.70179,0.00556449,-0.155712,52.8125,-52.5625,88.25,-0.00732422,0.649414,0.259277,-6,-7,4,0,-2,-1,1,-4,7195
-1.68612,0.0241817,-0.147048,29.375,-29.5625,37.375,-0.163574,0.871582,0.325195,1,-2,-12,-5,-2,1,0,-1,7212
-1.67753,0.0287216,-0.145074,6,-4.75,-5.5625,-0.241211,0.965332,0.375,-9,8,9,-2,-2,0,-3,-1,7229
-1.67753,0.0287216,-0.145074,6,-4.75,-5.5625,-0.241211,0.965332,0.375,-1,11,12,5,-5,1,-2,-2,7246
-1.68252,0.0159888,-0.149474,-31.75,18.875,-50.875,-0.224121,0.887695,0.370117,8,18,-7,2,-1,-2,-3,-1,7263
-1.7315,-0.0739101,-0.171485,-85,58.25,-139.813,0.220703,0.839355,0.298828,-9,-5,13,-16,-2,1,3,1,7282
-1.7718,-0.149216,-0.190598,-120.938,89.75,-188.188,0.751953,0.743652,0.115234,5,-1,-22,-27,0,-2,8,9,7299
-1.90732,-0.44638,-0.290588,-127.813,180.938,-229.438,2.94336,-0.839844,-0.00390625,-3,-10,-23,-6,8,0,6,7,7371
-1.904,-0.535939,-0.328371,-41.8125,174.563,-211.063,2.80469,-0.629395,-0.165527,-1,1,-1,6,-12,2,-19,-6,7388
-1.8928,-0.620852,-0.364267,-23.875,159.875,-202.813,2.68652,-0.441406,-0.218262,-18,1,16,19,-17,-2,-24,-21,7405
-1.88321,-0.700033,-0.396941,-30.3125,141.125,-192.563,2.67969,-0.309082,-0.262207,9,36,32,28,-27,-5,-36,-16,7422
-1.8965,-0.765708,-0.421222,-84.5,108.063,-162.563,2.25,-0.213867,-0.245117,9,-10,-30,-19,7,-5,0,-6,7438
-1.9431,-0.822714,-0.433294,-156.25,75.625,-129.813,1.64795,-0.216797,-0.271973,-9,-14,-6,-3,0,0,-12,-12,7456
-1.9431,-0.822714,-0.433294,-156.25,75.625,-129.813,1.64795,-0.216797,-0.271973,-18,-14,-18,-16,15,1,25,16,7474
-2.04548,-0.905403,-0.442869,-138.813,46.25,-91.5625,0.64209,-0.570313,-0.327637,-19,-24,-1,-8,4,1,3,13,7492
-2.04548,-0.905403,-0.442869,-138.813,46.25,-91.5625,0.64209,-0.570313,-0.327637,17,-6,10,8,-7,0,-1,1,7510
-2.08421,-0.926662,-0.438165,-96.5,33.1875,-68.1875,0.531738,-0.538086,-0.407715,6,19,13,12,-1,-1,2,-12,7527
-2.10627,-0.934378,-0.438034,-59.3125,25,-35.375,0.469727,-0.583008,-0.4375,-14,-14,-25,-25,12,-1,17,19,7544
-2.10899,-0.92783,-0.441143,-12.3125,14.9375,-7.6875,0.286133,-0.650391,-0.467773,-6,-14,-4,-7,5,0,1,10,7562
-2.10151,-0.912807,-0.439041,31.6875,2.1875,4.1875,0.0541992,-0.598145,-0.508301,-8,-9,-6,-8,4,-2,8,3,7580
-2.09339,-0.892978,-0.42946,52.8125,-8.5625,2,-0.145996,-0.618164,-0.575195,-2,-9,-2,-3,4,-3,-2,1,7596
-2.08944,-0.869249,-0.415709,53.4375,-17.25,7.0625,-0.181152,-0.620605,-0.644531,-1,1,12,17,-1,-4,-14,-16,7614
-2.08944,-0.869249,-0.415709,53.4375,-17.25,7.0625,-0.181152,-0.620605,-0.644531,-2,-3,-2,2,-11,-3,-10,-9,7631
-2.009,-0.774739,-0.412626,82.5,-21.5625,81.75,1.4541,-0.654785,-0.329102,-30,0,-35,-28,16,0,19,13,7704
-2.009,-0.774739,-0.412626,82.5,-21.5625,81.75,1.4541,-0.654785,-0.329102,-30,0,-35,-28,16,0,19,13,7720
-2.009,-0.774739,-0.412626,82.5,-21.5625,81.75,1.4541,-0.654785,-0.329102,-13,-18,13,-12,15,1,14,16,7737
-1.92563,-0.666186,-0.379227,177.313,-126.813,167.75,2.45117,-0.71582,0.0297852,17,-12,10,28,-13,-3,-24,-11,7754
-1.92563,-0.666186,-0.379227,177.313,-126.813,167.75,2.45117,-0.71582,0.0297852,4,-5,-39,-40,23,-1,32,25,7772
-1.885,-0.588233,-0.341594,179.688,-155.75,182.375,2.77734,-0.539063,0.03125,12,-52,13,6,-14,-10,-49,4,7789
-1.85011,-0.427168,-0.277382,70.9375,-142.188,206.375,2.40723,-0.287109,0.433105,24,-21,64,69,-44,-4,-72,-40,7806
-1.8215,-0.349395,-0.249292,112.438,-130.188,195.688,2.30762,-0.461426,0.208496,34,31,46,48,-28,0,-34,-43,7823
-1.8215,-0.349395,-0.249292,112.438,-130.188,195.688,2.30762,-0.461426,0.208496,12,80,21,15,-17,0,-2,-18,7841
-1.77296,-0.196628,-0.209522,84.875,-97.1875,197.688,1.79102,-0.0209961,0.303223,-4,13,-33,-24,10,2,28,12,7859
-1.74268,-0.135553,-0.192022,90.5625,-86.3125,187.375,1.46338,0.108398,0.265137,-33,-9,-8,-3,-4,-1,-4,4,7877
-1.74268,-0.135553,-0.192022,90.5625,-86.3125,187.375,1.46338,0.108398,0.265137,-15,-10,-11,-7,4,-1,5,3,7894
-1.71395,-0.0799895,-0.175948,84.8125,-73.9375,170.875,1.19482,0.405273,0.178223,11,-16,-8,-7,2,-2,-5,0,7912
-1.69316,-0.0309066,-0.161403,59.6875,-61.625,146.313,0.726074,0.519043,0.189453,11,-16,-8,-7,2,-2,-5,0,7929
-1.69316,-0.0309066,-0.161403,59.6875,-61.625,146.313,0.726074,0.519043,0.189453,-2,-6,8,4,1,-2,-1,-3,7946
-1.66443,0.0400265,-0.128839,35.125,-54.1875,90.25,0.196777,0.640137,0.0927734,-3,-8,-7,-6,2,-2,4,3,7964
-1.64537,0.0898663,-0.105253,-19.9375,-9.4375,-12.9375,-0.258789,0.727051,0.312988,2,6,-3,-2,-3,0,1,-2,8029
-1.6554,0.072021,-0.107789,-41.125,12.75,-57.8125,-0.0507813,0.809082,0.263184,2,-6,1,-2,-2,-3,-4,-2,8045
-1.67732,0.0349221,-0.1163,-66.75,34.3125,-96.875,0.129883,0.904297,0.175781,1,-25,6,5,0,1,-1,-2,8063
-1.7094,-0.015924,-0.129297,-93.4375,53.8125,-133.375,0.389648,0.825684,0.209961,5,23,3,-20,-7,-3,0,1,8081
-1.7466,-0.0876403,-0.152808,-110.063,98.6875,-192.25,1.47754,0.624023,0.0415039,-13,-6,-17,2,-11,-11,-6,-5,8097
-1.79109,-0.188973,-0.188164,-141.125,155.688,-265.25,2.64551,-0.15918,-0.0517578,-22,-7,-33,-14,14,-1,8,11,8114
-1.79109,-0.188973,-0.188164,-141.125,155.688,-265.25,2.64551,-0.15918,-0.0517578,14,-1,13,6,-5,-2,-1,-2,8130
-1.83198,-0.288918,-0.226819,-143.313,172.813,-252.875,2.90234,-0.716309,0.0522461,-2,-15,4,14,3,-1,2,4,8147
-1.85477,-0.383978,-0.261346,-98.3125,163.438,-237.375,3.10059,-0.76123,0.0161133,36,-26,34,36,-39,-8,-64,-25,8165
-1.86225,-0.470762,-0.295722,-62.0625,156.563,-213.25,2.89404,-0.73584,-0.0844727,57,58,56,52,-24,4,-19,-23,8182
-1.86647,-0.549743,-0.326885,-55.9375,140.188,-194.125,2.70313,-0.45459,-0.0727539,4,61,-4,-9,9,7,25,-3,8199
-1.88431,-0.61986,-0.351609,-90,116.438,-173.938,2.35059,-0.105957,-0.0415039,-62,10,-16,-21,0,-3,-3,13,8217
-1.9311,-0.679801,-0.367764,-162.375,91.5,-149.875,1.96289,-0.100098,-0.165527,30,-7,-3,-4,2,1,-3,-1,8234
-1.9311,-0.679801,-0.367764,-162.375,91.5,-149.875,1.96289,-0.100098,-0.165527,-21,-3,-13,-16,3,0,6,6,8251
-1.99181,-0.738206,-0.380977,-198.25,85.75,-132.313,1.41113,-0.414063,-0.213867,12,71,73,70,-42,1,-24,-51,8268
-2.03843,-0.787064,-0.397781,-167.938,90.0625,-109.5,0.8125,-0.572266,-0.208984,2,-12,-94,-90,65,10,111,105,8285
-2.08506,-0.842012,-0.411815,-47.75,43.6875,-53.0625,0.439941,-0.444824,-0.467285,29,-26,-4,-5,2,-1,-7,-6,8337
-2.09381,-0.838821,-0.405574,17.9375,15.125,-17.5625,0.0429688,-0.583984,-0.624512,3,-13,11,10,0,0,-1,-3,8354
-2.09381,-0.838821,-0.405574,17.9375,15.125,-17.5625,0.0429688,-0.583984,-0.624512,-8,-9,-1,-4,0,0,10,11,8371
-2.09522,-0.831513,-0.394531,35.625,9.0625,-23.1875,-0.121094,-0.510742,-0.683105,-5,-8,-3,0,-3,-2,-5,2,8387
-2.09522,-0.831513,-0.394531,35.625,9.0625,-23.1875,-0.121094,-0.510742,-0.683105,-1,1,12,11,-2,-5,-17,-16,8404
-2.10642,-0.805501,-0.362106,34.4375,-5.625,-4.25,0.111816,-0.594238,-0.841797,4,11,11,11,-7,-2,-11,-15,8422
-2.10642,-0.805501,-0.362106,34.4375,-5.625,-4.25,0.111816,-0.594238,-0.841797,-4,27,8,5,-5,-1,-6,-11,8439
-2.10671,-0.788215,-0.355434,30.0625,-8.9375,22.75,0.307129,-0.526367,-0.717773,-10,24,30,-1,-4,-3,-3,-4,8456
-2.05334,-0.740414,-0.371266,74.5625,-17.1875,75.875,0.898926,-0.747559,-0.311523,-19,-25,-40,-15,7,0,13,4,8472
-2.05334,-0.740414,-0.371266,74.5625,-17.1875,75.875,0.898926,-0.747559,-0.311523,-18,-28,-23,-14,10,3,-7,0,8490
-2.01357,-0.711105,-0.377263,100.5,-34.6875,94.25,1.79102,-0.698242,-0.147949,15,-10,44,36,-9,2,-7,6,8507
-1.96191,-0.657222,-0.372957,156,-71.25,137.375,2.24951,-0.531738,0.0410156,57,21,44,47,-27,-6,-48,-35,8524
-1.90912,-0.585553,-0.35573,179.813,-110.938,177.5,2.58545,-0.488281,0.141113,-33,6,-50,-45,31,-1,35,10,8541
-1.8709,-0.511279,-0.336574,138,-111.313,187.563,2.73877,-0.318359,0.17627,-22,-61,-31,-34,-5,1,-5,-9,8558
-1.8709,-0.511279,-0.336574,138,-111.313,187.563,2.73877,-0.318359,0.17627,6,-42,-63,-57,43,3,70,77,8576
-1.81666,-0.342521,-0.302175,115.938,-110.375,219.75,2.31006,-0.431641,0.24707,-13,-9,2,-5,3,-5,-5,5,8592
-1.75796,-0.171211,-0.259287,83.3125,-109.125,228.313,1.94971,0.12207,0.161621,-32,13,-1,5,-12,-3,-18,-5,8650
-1.7403,-0.0886544,-0.234382,59.9375,-111.625,220.375,1.59131,0.0639648,0.193848,6,-5,-18,-14,4,-1,3,1,8667
-1.72145,-0.019775,-0.207077,54.6875,-112.313,204.313,1.29248,0.0771484,0.1875,16,-7,-14,-13,0,-4,6,2,8684
-1.69773,0.0430672,-0.178667,63.5625,-108.313,185,1.06641,0.193848,0.212891,23,-10,-5,-7,0,-3,-7,2,8701
-1.66732,0.0939793,-0.150707,78.875,-96.8125,148.75,0.79834,0.456543,0.202148,0,-3,-5,1,2,2,5,6,8718
-1.63923,0.137531,-0.12651,69.5,-79.1875,123.75,0.380371,0.484375,0.185547,-9,-14,-14,-10,-1,-2,-7,-4,8735
-1.63923,0.137531,-0.12651,69.5,-79.1875,123.75,0.380371,0.484375,0.185547,-6,4,14,3,-2,0,-3,-5,8753
-1.61963,0.174182,-0.107273,44.0625,-59.875,100.625,0.0234375,0.458496,0.254395,-5,-6,-12,-5,4,-2,3,0,8772
-1.6009,0.203513,-0.0941284,25.75,-35.9375,69.125,-0.0800781,0.585938,0.331543,-5,-5,-11,-5,-3,-4,-3,-3,8789
-1.58595,0.22514,-0.0877455,18.375,-14.1875,37.75,-0.195313,0.724121,0.316895,1,1,5,0,5,0,7,3,8806
-1.58209,0.233408,-0.0879985,-6,4.8125,-5,-0.209473,0.955566,0.277344,0,-5,-9,-10,3,-1,3,2,8823
-1.59721,0.22046,-0.0929293,-55.3125,18.375,-59.1875,-0.102539,1.0625,0.259277,2,-6,-12,-9,2,-1,-5,-3,8840
-1.63558,0.183849,-0.104366,-106.813,37.5,-105.688,0.0361328,1.02344,0.251953,-10,14,16,-17,-6,0,-4,-3,8856
-1.63558,0.183849,-0.104366,-106.813,37.5,-105.688,0.0361328,1.02344,0.251953,-2,0,12,-8,1,-6,-10,-10,8873
-1.68371,0.128965,-0.121457,-132.063,62.125,-148.75,0.348145,0.827637,0.222656,-1,-10,-16,-14,-15,0,3,3,8890
-1.73742,0.0500017,-0.143613,-148.313,94.125,-215,1.81982,0.57373,-0.0932617,-20,-19,-34,-24,24,7,25,20,8907
-1.87799,-0.264063,-0.271562,-129.75,189,-236.375,3.18604,-0.815918,-0.136719,21,-21,37,47,-19,-7,-42,-10,8966
-1.90257,-0.348055,-0.30342,-97.75,158.063,-201.125,2.91309,-0.932129,-0.220703,34,36,48,24,-48,-4,-40,-51,8983
-1.90257,-0.348055,-0.30342,-97.75,158.063,-201.125,2.91309,-0.932129,-0.220703,-1,56,-29,-18,28,3,61,13,8998
-1.91946,-0.418215,-0.32996,-77.125,133.688,-166.125,2.72217,-0.637207,-0.202637,-23,-46,-60,-41,34,-2,27,33,9016
-1.95323,-0.481312,-0.348979,-120.625,110.563,-151.313,2.37744,0.101074,-0.188477,-8,-15,79,53,-70,-11,-114,-44,9033
-2.02621,-0.539465,-0.360067,-224.563,93.0625,-141.125,1.98682,-0.19873,-0.428223,-3,63,23,20,-4,3,25,-9,9051
-2.09934,-0.594462,-0.371789,-227.75,94.0625,-115.875,1.31885,-0.717773,-0.383789,-25,36,-21,-14,8,2,46,16,9068
-2.14353,-0.633856,-0.381026,-143.563,74.0625,-81.625,0.897949,-0.687988,-0.319336,-37,-5,-46,-31,26,4,37,27,9084
-2.15959,-0.663919,-0.385995,-54.25,53.875,-60.6875,0.571289,-0.493652,-0.340332,45,-15,-18,-17,18,2,22,6,9102
-2.1671,-0.679401,-0.386507,-16.375,32.8125,-38.5,0.337402,-0.394043,-0.400879,-1,-37,-38,-35,23,2,27,42,9119
-2.16833,-0.680681,-0.385869,6.6875,20.625,-20.375,0.0776367,-0.457031,-0.508301,-6,-8,18,12,-4,-1,-14,-16,9137
-2.16833,-0.680681,-0.385869,6.6875,20.625,-20.375,0.0776367,-0.457031,-0.508301,9,-4,2,-2,-1,0,2,1,9154
-2.16389,-0.671653,-0.383861,27.5,14.1875,-12.125,-0.166504,-0.54834,-0.621582,1,-3,8,8,-5,-2,-10,-5,9170
-2.15904,-0.659376,-0.379417,35.5,11.125,-15.25,-0.271973,-0.618652,-0.714844,-1,11,19,19,-5,2,-16,-16,9187
-2.15389,-0.6479,-0.374353,42.125,12,-12.9375,-0.182129,-0.613281,-0.805664,5,14,10,9,-8,-1,-6,-11,9205
-2.14797,-0.636826,-0.370291,47.6875,8.6875,1.3125,0.0424805,-0.538574,-0.846191,2,14,5,4,-6,-1,1,-9,9222
-2.12147,-0.598785,-0.365236,59.25,-20.4375,42.3125,0.280762,-0.566406,-0.569824,-17,-28,-41,-55,19,-3,27,21,9286
-2.0907,-0.591982,-0.372396,74.75,-12.8125,52.6875,0.959473,-0.536133,-0.273926,-20,-35,0,9,-1,-1,-19,0,9303
-1.99459,-0.528602,-0.373264,146.375,-77.0625,125.875,2.26611,-0.598633,0.21875,59,15,35,31,-27,-3,-24,-20,9320
-1.99459,-0.528602,-0.373264,146.375,-77.0625,125.875,2.26611,-0.598633,0.21875,-35,34,-4,-29,-7,1,11,-6,9336
-1.94204,-0.467897,-0.352488,178.875,-115.563,140.063,2.53955,-0.470703,0.251953,-6,-5,-4,-11,-1,2,14,0,9353
-1.90435,-0.405393,-0.330651,134.438,-115.125,148.625,2.60791,-0.439453,0.376465,-11,-23,-47,-29,48,8,90,40,9370
-1.90435,-0.405393,-0.330651,134.438,-115.125,148.625,2.60791,-0.439453,0.376465,23,-22,92,71,-65,-8,-106,-52,9387
-1.86226,-0.271945,-0.301331,88.75,-92,166.25,2.2373,-0.399902,0.39209,21,54,46,37,-25,5,-12,-31,9404
-1.86226,-0.271945,-0.301331,88.75,-92,166.25,2.2373,-0.399902,0.39209,-1,61,1,3,2,2,20,-5,9421
-1.83489,-0.208531,-0.289996,85.9375,-80.1875,166.125,2.08545,-0.193359,0.214844,-4,38,-22,-19,6,0,27,5,9438
-1.81893,-0.145409,-0.277251,52.25,-80.625,166,1.76514,-0.0532227,0.223633,-6,-9,-10,-7,3,0,-2,1,9456
-1.80578,-0.0893337,-0.261473,38.875,-88.1875,169.5,1.46387,-0.0107422,0.233398,2,-13,1,0,1,-3,-6,-3,9472
-1.79054,-0.030517,-0.242958,43.625,-94.75,171.875,1.17188,0.101563,0.19043,4,-10,-2,-2,-2,-2,2,3,9489
-1.77146,0.027814,-0.219699,53.3125,-103.313,164.938,0.937988,0.295898,0.141602,0,-12,-4,1,3,1,-1,2,9507
-1.74961,0.078574,-0.193613,57.3125,-102.563,137.75,0.563965,0.427246,0.139648,-3,-3,0,-3,0,2,-5,-3,9524
-1.72741,0.121287,-0.166864,54.125,-95.5,110.063,0.201172,0.522461,0.176758,-1,-4,-5,0,-2,-2,-1,-4,9542
-1.67926,0.188664,-0.12817,42.8125,-46.6875,59.375,-0.134277,0.840332,0.333008,6,-5,-17,-11,-3,0,2,1,9603
-1.66484,0.207231,-0.123135,16.0625,-12.0625,19.75,-0.304688,0.82666,0.419434,2,-2,4,1,-1,-1,-1,-2,9620
-1.66484,0.207231,-0.123135,16.0625,-12.0625,19.75,-0.304688,0.82666,0.419434,-2,4,6,1,0,-1,0,0,9637
-1.66449,0.190136,-0.130974,-30.25,28.3125,-67.875,-0.0473633,0.758789,0.339355,-5,-12,5,4,-2,0,-5,-3,9653
-1.66449,0.190136,-0.130974,-30.25,28.3125,-67.875,-0.0473633,0.758789,0.339355,9,32,0,10,-4,-2,-9,-4,9670
-1.66449,0.190136,-0.130974,-30.25,28.3125,-67.875,-0.0473633,0.758789,0.339355,-9,-20,-41,-4,6,4,6,2,9687
-1.78001,0.0163571,-0.186593,-154.25,103.563,-198.813,2.94873,0.28418,-0.192383,-1,-19,-1,-3,10,3,5,18,9704
-1.83671,-0.070206,-0.220719,-165.375,153.625,-218.25,2.54883,-0.820313,0.117676,-8,-45,-3,14,-7,2,-17,-3,9721
-1.83671,-0.070206,-0.220719,-165.375,153.625,-218.25,2.54883,-0.820313,0.117676,-7,14,8,10,-9,-3,-7,-7,9738
-1.89797,-0.225453,-0.285519,-62,153.75,-183.938,2.88086,-0.749023,-0.164551,45,24,69,45,-49,-3,-56,-30,9755
-1.89797,-0.225453,-0.285519,-62,153.75,-183.938,2.88086,-0.749023,-0.164551,-12,33,-39,-32,29,3,60,12,9772
-1.90916,-0.297932,-0.315763,-54.9375,146.813,-169.188,2.8418,-0.536621,-0.259766,-32,8,-56,-52,41,11,41,25,9789
-1.92825,-0.365332,-0.339119,-76.125,125.375,-159.75,2.51904,-0.370117,-0.289063,-24,-20,-31,-10,12,-5,-3,6,9806
-1.97275,-0.424373,-0.353851,-143.938,98.9375,-142.75,2.0249,-0.291992,-0.277832,9,-7,3,1,2,0,-2,6,9823
-1.97275,-0.424373,-0.353851,-143.938,98.9375,-142.75,2.0249,-0.291992,-0.277832,-10,-20,-14,-9,7,-3,9,7,9841
-1.97275,-0.424373,-0.353851,-143.938,98.9375,-142.75,2.0249,-0.291992,-0.277832,-10,-20,-14,-9,7,-3,9,7,9858
-2.1104,-0.56534,-0.378787,-109.375,57.1875,-74.375,0.669434,-0.418457,-0.322266,18,23,7,4,-6,2,2,-12,9919
-2.15206,-0.5973,-0.377467,-33.4375,23.25,-27.125,0.220703,-0.469727,-0.464355,0,13,-3,4,-5,-2,-2,-6,9937
-2.15362,-0.593641,-0.378163,0.625,14.3125,-11.1875,0.019043,-0.55127,-0.491699,-15,2,-14,-15,8,-2,13,11,9954
-2.15362,-0.593641,-0.378163,0.625,14.3125,-11.1875,0.019043,-0.55127,-0.491699,-4,-11,-10,-10,4,1,3,3,9971
-2.14741,-0.58707,-0.376962,29.8125,12.8125,-12.5,-0.140625,-0.520996,-0.547363,-3,-11,-4,-5,4,0,-4,10,9988
-2.14741,-0.58707,-0.376962,29.8125,12.8125,-12.5,-0.140625,-0.520996,-0.547363,-6,-14,3,0,0,0,-10,-7,10004
-2.14741,-0.58707,-0.376962,29.8125,12.8125,-12.5,-0.140625,-0.520996,-0.547363,2,2,8,8,-8,-3,-12,-11,10022
-2.1353,-0.569032,-0.362664,50.875,0.6875,-16.25,-0.159668,-0.617676,-0.762695,5,-1,3,5,-7,-1,-3,-5,10039
-2.1353,-0.569032,-0.362664,50.875,0.6875,-16.25,-0.159668,-0.617676,-0.762695,21,30,24,25,-9,1,-9,-7,10056
-2.0841,-0.53561,-0.36426,70.9375,-2.0625,42.25,0.682129,-0.503418,-0.318848,21,30,24,25,-9,1,-9,-7,10073
-2.0841,-0.53561,-0.36426,70.9375,-2.0625,42.25,0.682129,-0.503418,-0.318848,-12,-13,-30,-27,1,-4,5,4,10091
-2.0459,-0.547402,-0.37048,93.75,-5.25,33.6875,1.51416,-0.664551,-0.220215,-17,-17,3,-2,6,3,-3,4,10108
-2.0459,-0.547402,-0.37048,93.75,-5.25,33.6875,1.51416,-0.664551,-0.220215,-7,-17,13,13,-17,-2,-32,-18,10125
-2.0459,-0.547402,-0.37048,93.75,-5.25,33.6875,1.51416,-0.664551,-0.220215,-1,-6,-18,-14,20,0,43,21,10142
-1.96097,-0.460944,-0.354959,133.875,-95.8125,139.063,2.47949,-0.748535,0.0922852,-13,-13,-29,-16,21,-2,30,26,10159
-1.92064,-0.319706,-0.311663,56.625,-122.625,171,2.38525,-0.453613,0.326172,-6,-16,7,2,11,1,9,-3,10176
-1.86255,-0.0979013,-0.261275,77.125,-96.5625,188.875,2.02539,-0.0131836,0.0664063,-10,10,-21,-15,4,-1,8,10,10241
-1.84743,-0.0262901,-0.250036,44.9375,-88.1875,188,1.64893,0.0913086,0.134277,-11,-4,-8,-8,1,0,10,3,10259
-1.83218,0.0374115,-0.238026,40.5,-87.875,188.438,1.30811,0.0131836,0.192871,-5,-5,2,3,-2,-2,-3,0,10276
-1.80766,0.0990948,-0.222457,63,-90,175.188,0.904785,0.101074,0.260742,8,-3,-1,4,-2,0,4,-1,10293
-1.7741,0.151293,-0.204207,85.8125,-85.4375,145.75,0.717773,0.208008,0.260742,4,17,-2,-8,4,-1,2,3,10311
-1.7355,0.19365,-0.187487,98.6875,-69.3125,117.625,0.493652,0.429199,0.295898,-10,-4,8,3,2,2,3,-1,10329
-1.69653,0.226863,-0.177033,94,-40.5625,91.1875,0.209473,0.791504,0.270996,-4,-15,-3,-4,2,2,-2,2,10347
-1.6683,0.257447,-0.174274,64.6875,-11.0625,60.875,-0.124023,1.0293,0.32373,-7,-9,3,6,-4,-1,-5,-5,10364
-1.66511,0.278847,-0.17581,-6.25,6.5625,23.0625,-0.323242,0.936035,0.34375,7,6,7,11,1,-1,-1,-2,10382
-1.66511,0.278847,-0.17581,-6.25,6.5625,23.0625,-0.323242,0.936035,0.34375,-8,-2,-10,-15,0,-5,3,3,10399
-1.68015,0.281518,-0.181235,-53.75,20.75,-16.25,-0.166504,0.783691,0.314941,-9,-1,14,8,2,1,0,-4,10416
-1.69992,0.262757,-0.190048,-67.125,36.6875,-60.1875,0.0380859,0.708008,0.353516,3,-7,3,-16,-1,-1,3,3,10433
-1.72729,0.223888,-0.204782,-71.3125,57.0625,-102.5,0.288574,0.694824,0.305176,-3,10,4,7,2,2,1,0,10451
-1.76118,0.16957,-0.225631,-86.875,83.3125,-135.125,0.597656,0.689941,0.224121,9,-49,-6,-34,0,0,4,4,10467
-1.80527,0.102256,-0.248088,-117.75,103.125,-175.25,1.67188,0.554199,0.0405273,-6,12,4,8,4,-3,2,4,10484
-1.85831,0.00783912,-0.277446,-147.25,150.75,-240.063,2.49414,-0.297852,0.0805664,-17,-26,-7,25,-3,-4,-21,-14,10501
-1.91983,-0.275673,-0.373906,-52.6875,165.438,-207.875,2.71631,-0.520508,-0.0444336,3,11,25,15,-24,-3,-32,-21,10569
-1.93629,-0.358787,-0.399339,-69.875,147.813,-199.063,2.62646,-0.39209,-0.135742,-7,18,-9,-10,11,6,27,11,10587
-1.96156,-0.435124,-0.418427,-93.625,127.938,-184.75,2.39063,-0.360352,-0.161621,8,20,7,7,-11,-4,-11,-12,10604
-2.0043,-0.500397,-0.430242,-137.75,102.438,-159.438,1.88867,-0.294434,-0.17627,7,6,-10,-12,2,-1,11,4,10621
-2.0043,-0.500397,-0.430242,-137.75,102.438,-159.438,1.88867,-0.294434,-0.17627,-16,-21,-29,-25,19,3,25,19,10637
-2.06193,-0.559284,-0.433795,-171.063,76.1875,-133.438,1.33252,-0.418457,-0.172363,-13,-31,-15,-10,8,-1,5,11,10654
-2.11181,-0.602216,-0.435007,-146.188,58.8125,-100.313,0.878418,-0.579102,-0.230957,26,21,21,18,-21,-4,-25,-29,10670
-2.14387,-0.634878,-0.436968,-96,51.9375,-75.25,0.545898,-0.578613,-0.360352,21,24,9,9,-4,-1,6,-8,10688
-2.16557,-0.652884,-0.436275,-57.25,32.1875,-47.75,0.371582,-0.487793,-0.402344,9,18,-2,-1,-2,-3,-2,-2,10705
-2.16557,-0.652884,-0.436275,-57.25,32.1875,-47.75,0.371582,-0.487793,-0.402344,-6,2,-6,-10,9,1,17,14,10721
-2.1696,-0.647582,-0.431685,21.875,0.75,-2.625,0.0581055,-0.546875,-0.520996,-12,-23,-21,-21,6,-2,12,14,10738
-2.1696,-0.647582,-0.431685,21.875,0.75,-2.625,0.0581055,-0.546875,-0.520996,-5,-23,-10,-11,7,0,6,10,10755
-2.16538,-0.628719,-0.425719,31.4375,-11.625,4.5,-0.151367,-0.625,-0.617188,2,-17,-2,-4,2,-2,-7,0,10772
-2.16659,-0.604486,-0.416355,22.8125,-25.5,12.3125,-0.121094,-0.685059,-0.688965,7,-9,8,9,-7,-2,-18,-8,10789
-2.16788,-0.584247,-0.410664,19.6875,-24.25,28.3125,0.27832,-0.664063,-0.740723,11,7,-7,8,-3,-3,-2,-4,10806
-2.15934,-0.567959,-0.414082,33.5625,-8.9375,44.4375,0.476563,-0.594238,-0.688477,-4,12,12,23,-14,-3,-18,-20,10824
-2.07224,-0.499335,-0.442935,93.5,-43.3125,88.3125,2.18896,-0.750977,-0.10791,-25,-43,-3,-3,-4,-5,-8,5,10893
-2.01944,-0.438767,-0.435298,161.313,-96.75,145.5,2.02832,-0.612305,0.034668,12,3,-30,-24,19,2,28,24,10910
-1.97535,-0.358625,-0.415339,148.313,-143.125,187.125,2.25537,-0.859863,0.214844,-8,-30,-23,-4,2,-5,-11,0,10928
-1.93553,-0.278353,-0.393321,133.688,-142,190.813,2.5083,-0.44873,0.259277,-7,-7,15,10,7,1,5,1,10944
-1.90969,-0.202055,-0.373335,87.9375,-127.5,186.25,2.42725,-0.202637,0.273438,-18,-21,0,-8,3,0,3,1,10961
-1.88794,-0.124067,-0.35256,71.625,-127.563,192.75,2.33008,-0.306152,0.255371,-10,-28,-4,-7,8,-2,-2,6,10979
-1.8562,-0.0487265,-0.329457,96.6875,-127.188,186.625,2.21143,-0.275391,0.151367,13,-18,1,3,-13,-4,-21,-10,10996
-1.8562,-0.0487265,-0.329457,96.6875,-127.188,186.625,2.21143,-0.275391,0.151367,6,14,16,30,-15,-4,-21,-19,11013
-1.82663,0.0230672,-0.303575,85.5,-126.625,178.25,1.90186,-0.065918,0.146973,6,14,16,30,-15,-4,-21,-19,11031
-1.82663,0.0230672,-0.303575,85.5,-126.625,178.25,1.90186,-0.065918,0.146973,-4,13,5,4,-8,1,-3,-7,11047
-1.7645,0.155949,-0.239202,80.8125,-133.438,172.563,1.3374,0.0859375,0.299316,-4,13,5,4,-8,1,-3,-7,11065
-1.7645,0.155949,-0.239202,80.8125,-133.438,172.563,1.3374,0.0859375,0.299316,-4,14,-19,-16,3,0,16,3,11082
-1.72477,0.208862,-0.206215,92.4375,-119.938,150,1.08154,0.302734,0.26709,-7,1,-6,-6,4,-2,10,2,11099
-1.72477,0.208862,-0.206215,92.4375,-119.938,150,1.08154,0.302734,0.26709,-5,-13,-20,-14,6,0,3,5,11116
-1.68574,0.251003,-0.177218,89,-96.9375,118.438,0.70752,0.47168,0.299316,-3,-19,-8,-1,-1,-2,-6,0,11133
-1.6172,0.310905,-0.133557,45.75,-46.6875,61.75,-0.0610352,0.755371,0.455566,-2,-9,8,2,-2,1,-5,-2,11150
-1.59566,0.332816,-0.124521,23.3125,-15.625,25.875,-0.254883,0.894531,0.492188,8,12,-6,-4,1,1,0,5,11220
-1.64645,0.275677,-0.154948,-82.1875,61.8125,-116.125,0.226074,0.870117,0.335938,8,12,-6,-4,1,1,0,5,11237
-1.68166,0.219183,-0.182181,-85.75,91.1875,-151.938,0.322266,0.803223,0.311523,-29,0,-21,14,1,-2,-5,-8,11254
-1.72257,0.140502,-0.214637,-102.25,119.063,-200.5,0.763184,0.733887,0.249512,12,-9,-34,-6,-2,-4,-5,0,11271
-1.72257,0.140502,-0.214637,-102.25,119.063,-200.5,0.763184,0.733887,0.249512,23,46,-31,-36,5,-1,11,12,11288
-1.82694,-0.0723316,-0.291312,-150.563,197.438,-287.313,2.57227,-0.166504,0.0756836,3,-23,16,14,-10,-6,-35,-6,11305
-1.82694,-0.0723316,-0.291312,-150.563,197.438,-287.313,2.57227,-0.166504,0.0756836,21,4,60,51,-40,-8,-66,-36,11322
-1.86647,-0.18087,-0.33018,-127.688,191.313,-269.313,2.79688,-0.641113,0.168457,14,37,19,21,-17,1,-8,-24,11339
-1.87783,-0.277508,-0.365328,-55.0625,175.688,-235.438,2.66357,-0.541992,0.0732422,4,40,22,5,-10,1,4,-15,11357
-1.87783,-0.277508,-0.365328,-55.0625,175.688,-235.438,2.66357,-0.541992,0.0732422,30,21,16,15,-32,-7,-34,-20,11374
-1.88326,-0.451691,-0.422797,-47.5625,135.375,-207,2.67334,-0.150879,-0.130859,-21,-1,-48,-47,29,1,42,28,11391
-1.91353,-0.517996,-0.43676,-105.125,94.625,-168.563,2.36133,-0.146973,-0.172363,-23,-34,-33,-29,23,0,11,11,11409
-1.96858,-0.57386,-0.438244,-159.25,53.3125,-125.938,1.77637,-0.222168,-0.172363,15,-21,11,9,-3,-3,-14,-6,11427
-2.02864,-0.61357,-0.434256,-165.625,34.25,-98.4375,1.1333,-0.52832,-0.255371,3,-32,4,0,-11,-5,-30,-5,11444
-2.02864,-0.61357,-0.434256,-165.625,34.25,-98.4375,1.1333,-0.52832,-0.255371,-15,6,19,12,-8,0,-1,-11,11461
-2.08177,-0.640248,-0.424657,-136.5,13.6875,-75.25,0.716309,-0.572754,-0.255859,23,18,8,8,-5,-4,1,-15,11478
-2.15809,-0.622583,-0.391385,21.4375,-35.25,28.6875,0.149414,-0.598633,-0.380371,-5,-5,-1,4,4,-1,0,-2,11549
-2.14716,-0.594982,-0.38336,50.3125,-40.1875,33.8125,-0.0244141,-0.538574,-0.46875,1,-10,1,-4,-1,0,-7,-8,11566
-2.14716,-0.594982,-0.38336,50.3125,-40.1875,33.8125,-0.0244141,-0.538574,-0.46875,15,0,0,1,-12,-2,-13,-8,11583
-2.13025,-0.537147,-0.363577,49.4375,-41.375,45.3125,0.182617,-0.514648,-0.628418,15,15,9,9,-11,-1,-13,-11,11600
-2.13025,-0.537147,-0.363577,49.4375,-41.375,45.3125,0.182617,-0.514648,-0.628418,-20,26,33,30,-13,-1,-12,-18,11617
-2.11656,-0.51011,-0.36282,53.3125,-32.4375,63.4375,0.301758,-0.506836,-0.560547,-19,16,-5,-9,-2,-1,10,1,11635
-2.11656,-0.51011,-0.36282,53.3125,-32.4375,63.4375,0.301758,-0.506836,-0.560547,-28,37,14,-13,11,3,18,11,11652
-2.06288,-0.468234,-0.378037,77.5625,-26.4375,95.8125,1.24219,-0.599121,-0.31543,-14,-72,-63,-49,8,0,19,19,11669
-2.06288,-0.468234,-0.378037,77.5625,-26.4375,95.8125,1.24219,-0.599121,-0.31543,36,27,30,1,-9,0,-24,-8,11685
-2.01567,-0.421774,-0.379549,133.625,-56.875,120.625,2.0459,-0.507324,-0.0708008,-15,-1,2,25,-5,-2,-5,-8,11702
-1.94328,-0.353864,-0.364874,223.125,-112.875,163.375,2.47412,-0.619141,0.097168,6,-19,-38,-23,14,3,29,18,11719
-1.87835,-0.277483,-0.345637,203.188,-122.688,189,2.73438,-0.662598,0.0805664,-15,-38,-24,-25,14,-5,18,11,11737
-1.83393,-0.202,-0.328128,138.813,-107.563,193.875,2.49951,-0.10791,0.238281,-15,-38,-24,-25,14,-5,18,11,11754
-1.83393,-0.202,-0.328128,138.813,-107.563,193.875,2.49951,-0.10791,0.238281,1,-21,25,9,-9,-3,-32,-2,11772
-1.81816,-0.0476611,-0.288179,31.5625,-105.375,189.313,2.12988,-0.476563,0.23877,40,62,54,49,-27,-3,-32,-35,11789
-1.81816,-0.0476611,-0.288179,31.5625,-105.375,189.313,2.12988,-0.476563,0.23877,-13,29,-3,1,6,2,21,2,11806
-1.7503,0.183666,-0.216291,57.5,-92.625,147.25,1.18945,-0.0117188,0.105957,2,1,-2,-2,-1,-2,-3,3,11866
-1.7503,0.183666,-0.216291,57.5,-92.625,147.25,1.18945,-0.0117188,0.105957,16,17,7,0,2,0,9,6,11882
-1.68272,0.274113,-0.177249,90.1875,-66.0625,119.875,0.533203,0.387207,0.165039,16,17,7,0,2,0,9,6,11899
-1.64845,0.309037,-0.160067,73.0625,-53.625,97.0625,0.183594,0.480957,0.20752,-10,-33,-15,-3,1,-4,-2,0,11915
-1.61983,0.341576,-0.143758,50,-43.125,71.375,-0.0834961,0.597656,0.295898,7,5,4,-3,-1,-4,-3,1,11932
-1.61983,0.341576,-0.143758,50,-43.125,71.375,-0.0834961,0.597656,0.295898,-1,-10,-1,5,-5,0,-6,-5,11949
-1.59634,0.368074,-0.129883,34.625,-31.9375,43.3125,-0.20166,0.741699,0.31543,4,-3,-4,2,-4,-3,-4,-5,11967
-1.59634,0.368074,-0.129883,34.625,-31.9375,43.3125,-0.20166,0.741699,0.31543,-5,6,-5,-4,0,-3,-2,1,11984
-1.59634,0.368074,-0.129883,34.625,-31.9375,43.3125,-0.20166,0.741699,0.31543,7,47,9,-4,7,3,0,2,12001
-1.58296,0.379001,-0.122917,12.9375,-11.4375,-0.6875,-0.13916,0.919922,0.301758,-16,-30,-14,-9,-5,-1,2,-1,12017
-1.58296,0.379001,-0.122917,12.9375,-11.4375,-0.6875,-0.13916,0.919922,0.301758,12,-28,3,-6,-3,-4,-9,-5,12034
-1.64234,0.295863,-0.15435,-93.9375,74.9375,-117.938,0.455078,0.675781,0.273438,1,89,-5,-25,-4,-2,5,5,12051
-1.69947,0.229629,-0.186153,-140,105.125,-163.25,1.10693,0.364746,0.050293,-1,-27,-40,-7,-1,-6,2,2,12068
-1.69947,0.229629,-0.186153,-140,105.125,-163.25,1.10693,0.364746,0.050293,11,47,2,-15,-6,-4,-6,2,12085
-1.76286,0.144333,-0.223839,-161.563,143.75,-224.5,2.4043,-0.28125,-0.00537109,11,47,2,-15,-6,-4,-6,2,12102
-1.80943,0.0509943,-0.266877,-121.188,177.375,-235.188,2.46191,-0.520996,0.165527,-10,-21,5,3,-4,4,-4,-3,12119
-1.90617,-0.271503,-0.383001,-95.625,130.688,-183.188,2.49854,-0.276855,-0.0766602,-11,28,8,-2,-4,5,11,-9,12172
-1.90617,-0.271503,-0.383001,-95.625,130.688,-183.188,2.49854,-0.276855,-0.0766602,-14,-18,-5,-7,3,0,6,9,12189
-1.95265,-0.336138,-0.400588,-148.313,110,-156.563,2.125,-0.236328,-0.169434,-4,-11,-16,3,4,1,-1,9,12207
-2.01539,-0.395657,-0.411121,-189.625,85.75,-123.625,1.61279,-0.330078,-0.239746,0,2,3,1,-2,0,3,-6,12224
-2.01539,-0.395657,-0.411121,-189.625,85.75,-123.625,1.61279,-0.330078,-0.239746,-2,-12,-18,-16,12,-5,19,9,12241
-2.01539,-0.395657,-0.411121,-189.625,85.75,-123.625,1.61279,-0.330078,-0.239746,7,-11,23,22,-21,-6,-38,-23,12258
-2.12101,-0.469999,-0.421738,-132.25,51.75,-69.0625,0.752441,-0.626465,-0.366699,-7,-13,-25,-26,11,0,14,20,12276
-2.15127,-0.492341,-0.421849,-83,34.8125,-50.3125,0.423828,-0.549316,-0.4375,-10,-23,-4,-2,-3,-4,-17,1,12292
-2.16617,-0.500755,-0.420358,-33.375,15.8125,-23.625,0.304199,-0.502441,-0.486816,-15,-22,11,11,-11,-3,-21,-11,12309
-2.16617,-0.500755,-0.420358,-33.375,15.8125,-23.625,0.304199,-0.502441,-0.486816,-4,11,-5,-1,3,1,7,-2,12326
-2.14928,-0.476462,-0.40828,68.4375,-22.25,-1.75,-0.166504,-0.669434,-0.61084,-2,-18,-11,-14,4,-4,6,6,12344
-2.14928,-0.476462,-0.40828,68.4375,-22.25,-1.75,-0.166504,-0.669434,-0.61084,5,-2,8,9,-7,-2,-14,-8,12361
-2.1336,-0.455356,-0.389266,85.75,-41.5,-9.4375,-0.223145,-0.736816,-0.773438,9,9,11,13,-7,-2,-15,-13,12378
-2.12574,-0.43589,-0.370943,67.625,-44.75,2.0625,-0.0322266,-0.629883,-0.799805,8,29,8,5,-10,-1,-5,-8,12395
-2.122,-0.418656,-0.360633,48.875,-33.875,26,0.203613,-0.473145,-0.766602,3,-10,-4,7,-8,-4,-2,-5,12411
-2.11198,-0.396166,-0.357536,48.5,-31.6875,50.125,0.212402,-0.461914,-0.576172,-7,5,26,12,-1,2,3,0,12428
-2.01273,-0.323028,-0.346514,130.25,-97.5625,116.625,2.2627,-0.868652,-0.219727,8,29,34,48,-15,-2,-27,-30,12489
-2.01273,-0.323028,-0.346514,130.25,-97.5625,116.625,2.2627,-0.868652,-0.219727,-24,-27,-9,-10,3,-1,24,9,12506
-1.91081,-0.161996,-0.299985,164.813,-158.938,191.625,2.94434,-0.460938,0.157715,2,-26,-1,3,-11,-2,-13,-2,12522
-1.91081,-0.161996,-0.299985,164.813,-158.938,191.625,2.94434,-0.460938,0.157715,16,-73,-36,-25,13,-6,-9,-2,12539
-1.88769,-0.0845049,-0.279141,73.875,-127.75,191.188,2.48779,-0.320313,0.253906,10,-10,17,18,-10,-4,-34,-7,12557
-1.8703,-0.0109127,-0.259319,52.25,-118.313,183.813,2.32715,-0.509766,0.382813,-8,-8,27,13,-25,-4,-33,-2,12574
-1.84242,0.0575114,-0.244164,78.6875,-96.75,175.75,2.20557,-0.550781,0.204102,-2,59,9,1,-4,1,9,-6,12591
-1.84242,0.0575114,-0.244164,78.6875,-96.75,175.75,2.20557,-0.550781,0.204102,-5,21,-15,-8,8,1,13,5,12608
-1.7868,0.18772,-0.214743,79,-88.75,168,1.53369,-0.00732422,0.167969,-5,21,-15,-8,8,1,13,5,12625
-1.7868,0.18772,-0.214743,79,-88.75,168,1.53369,-0.00732422,0.167969,11,8,-4,-2,-2,0,-1,-1,12642
-1.75285,0.241938,-0.190808,80.25,-99.75,156.938,1.15527,0.181152,0.154297,-1,13,-11,-15,5,2,11,6,12658
-1.72005,0.290987,-0.165846,74.1875,-92.75,139.25,0.85498,0.387695,0.0976563,-8,-17,-11,-7,0,-3,9,7,12675
-1.69315,0.33324,-0.141776,55.0625,-82.1875,116.125,0.478027,0.452637,0.102051,-9,-12,-13,-16,8,-1,7,7,12692
-1.67206,0.366749,-0.119481,31.6875,-67.8125,89.375,0.227051,0.549805,0.166992,1,8,-8,-4,1,-4,-2,3,12709
-1.67206,0.366749,-0.119481,31.6875,-67.8125,89.375,0.227051,0.549805,0.166992,-5,0,5,0,-9,-2,-5,-4,12726
-1.67206,0.366749,-0.119481,31.6875,-67.8125,89.375,0.227051,0.549805,0.166992,5,1,-1,-1,-2,-3,-2,-1,12744
-1.67375,0.388575,-0.0890712,-57.5,39.5,-92.125,0.120117,0.827148,0.268066,5,3,-7,12,1,0,1,1,12807
-1.70513,0.342552,-0.108986,-71.75,69.1875,-124.875,0.291992,0.834961,0.226563,5,-19,-9,-7,-9,-4,-10,-1,12824
-1.70513,0.342552,-0.108986,-71.75,69.1875,-124.875,0.291992,0.834961,0.226563,-12,10,0,16,1,-1,-6,-6,12841
-1.7458,0.275267,-0.13404,-95.1875,95.8125,-169.688,0.8125,0.601074,0.154785,-22,-6,-20,-5,2,-1,11,0,12859
-1.87432,0.079151,-0.19755,-172.75,179.938,-263.563,2.59033,-0.320313,0.00683594,-8,23,-25,-34,11,0,25,14,12876
-1.87432,0.079151,-0.19755,-172.75,179.938,-263.563,2.59033,-0.320313,0.00683594,8,-4,7,-6,-6,-3,-12,3,12893
-1.92329,-0.0254684,-0.231168,-137.75,187.813,-253.188,3.18994,-0.765137,-0.0361328,11,-20,14,21,-1,-1,-6,-8,12911
-1.94911,-0.117562,-0.270152,-82.125,198.625,-206.813,3.16406,-0.910645,-0.0810547,14,-39,15,16,-22,-7,-31,-19,12928
-1.96283,-0.196857,-0.307603,-56,183.813,-170.625,2.74268,-0.765625,-0.0634766,-64,51,20,17,-13,1,-5,-15,12946
-1.9742,-0.263448,-0.340445,-53.875,158.125,-140.563,2.36328,-0.539551,-0.0844727,-5,51,17,8,-15,0,-8,-19,12962
-2.00057,-0.317714,-0.36801,-98.3125,132.313,-111.688,2.03125,-0.3125,-0.123535,36,15,18,13,-22,-2,-30,-17,12980
-2.00057,-0.317714,-0.36801,-98.3125,132.313,-111.688,2.03125,-0.3125,-0.123535,27,32,4,1,-8,1,9,-9,12997
-2.04245,-0.368639,-0.392524,-142.75,112.625,-80.25,1.67041,-0.325684,-0.21582,-10,1,-38,-33,24,3,41,28,13015
-2.0843,-0.406089,-0.414697,-143.438,95.5,-52.875,1.22461,-0.484375,-0.302246,-21,-20,-34,-32,25,0,28,32,13031
-2.1237,-0.429883,-0.432466,-131.813,70.3125,-26.0625,0.908691,-0.445313,-0.401855,-1,-31,12,9,-10,-2,-23,-7,13049
-2.15643,-0.446602,-0.444302,-98.1875,46.1875,-7,0.581543,-0.446289,-0.479004,0,-10,16,12,-11,-1,-16,-13,13066
-2.2023,-0.421596,-0.459561,-10.4375,0.8125,22.75,-0.123047,-0.415527,-0.602051,-1,-11,-8,-8,1,-4,-2,2,13136
-2.20797,-0.403064,-0.458893,1.5625,-2.125,12.5625,-0.321289,-0.456055,-0.67627,4,-6,0,1,-4,-1,-3,2,13154
-2.21085,-0.385498,-0.455004,18.6875,-5.875,6.25,-0.284668,-0.507324,-0.80957,6,2,0,6,-6,-2,-7,-5,13171
-2.21103,-0.368056,-0.447461,35.3125,-22.875,15.8125,0.00927734,-0.51416,-0.914551,1,3,7,2,-4,-1,-5,-9,13189
-2.20519,-0.347771,-0.440692,48.9375,-37.375,35.875,0.193359,-0.443359,-0.804688,3,26,10,1,-9,-1,-8,-7,13206
-2.18536,-0.324096,-0.439728,65.875,-43.8125,60.875,0.358887,-0.541016,-0.533691,-11,24,-3,0,-3,1,6,0,13223
-2.18536,-0.324096,-0.439728,65.875,-43.8125,60.875,0.358887,-0.541016,-0.533691,5,32,18,0,4,-2,1,0,13240
-2.15591,-0.313648,-0.440894,79.25,-44.125,67.8125,1.00586,-0.666992,-0.369629,-9,-14,-8,-22,10,1,14,5,13257
-2.12049,-0.281194,-0.429911,110.5,-75.1875,62.125,1.91016,-0.742188,-0.19873,-4,-26,33,20,-17,0,-40,-13,13274
-2.07177,-0.22449,-0.413285,151.875,-121.75,117.375,2.31641,-0.691406,0.0170898,-10,15,11,12,-2,-4,8,-6,13291
-2.01162,-0.151149,-0.386212,186.75,-163.313,152.813,2.62695,-0.805176,0.132324,23,0,1,0,-11,2,-8,0,13308
-1.94822,-0.070543,-0.354119,191.938,-175.813,175.563,2.646,-0.709473,0.257324,-11,-17,-26,-3,5,-6,4,6,13325
-1.91768,0.00224674,-0.32438,89.9375,-153.563,165.063,2.38721,-0.389648,0.364746,-1,-15,-5,-1,4,0,-12,2,13344
-1.91768,0.00224674,-0.32438,89.9375,-153.563,165.063,2.38721,-0.389648,0.364746,20,30,-6,-3,2,-4,-10,-1,13362
-1.86614,0.132734,-0.275135,70.8125,-113.188,141.563,2.14795,-0.463867,0.240723,2,3,6,7,-17,-1,-22,-18,13379
-1.86614,0.132734,-0.275135,70.8125,-113.188,141.563,2.14795,-0.463867,0.240723,-11,9,4,1,1,-2,4,-1,13397
-1.74773,0.316434,-0.183231,81.8125,-93.625,103.188,0.850586,0.294922,0.120117,-1,-16,-3,3,-7,-1,-9,-1,13460
-1.74773,0.316434,-0.183231,81.8125,-93.625,103.188,0.850586,0.294922,0.120117,-2,-2,8,-1,-1,-1,2,-1,13477
-1.71297,0.3406,-0.15664,69.875,-84.5625,82,0.522461,0.345215,0.120117,-2,-6,-15,-7,3,-1,2,2,13494
-1.68077,0.36493,-0.131208,55.375,-72.9375,65.75,0.223633,0.361328,0.228027,1,13,13,3,4,1,-3,0,13511
-1.64903,0.38625,-0.110404,47.25,-51.625,46.75,0.0454102,0.456543,0.379883,-1,-7,-4,1,-5,0,-4,-2,13528
-1.64903,0.38625,-0.110404,47.25,-51.625,46.75,0.0454102,0.456543,0.379883,1,5,3,3,-7,-7,0,-1,13546
-1.6218,0.402947,-0.0980442,34.375,-21.4375,18.5625,-0.164551,0.616699,0.509277,-4,-1,-1,-4,7,1,0,-1,13562
-1.60748,0.40952,-0.0946771,5.4375,5.625,-15.875,-0.224609,0.763184,0.539551,-2,5,4,4,-2,2,4,0,13579
-1.60748,0.40952,-0.0946771,5.4375,5.625,-15.875,-0.224609,0.763184,0.539551,7,47,9,-20,0,-2,1,3,13597
-1.64284,0.376655,-0.121678,-74.125,56.9375,-83.5625,0.09375,0.959961,0.291016,-14,-11,7,13,4,-4,-3,-5,13615
-1.69037,0.335031,-0.146608,-114,79.3125,-114.5,0.188477,0.870605,0.261719,17,-10,-27,-16,-1,3,2,10,13631
-1.7523,0.271707,-0.17714,-151.25,108.375,-158.438,0.685547,0.63623,0.130371,20,49,15,13,-2,-5,3,8,13647
-1.82457,0.185858,-0.206146,-188.5,132.313,-223.188,2.60693,0.258789,-0.208984,-13,-23,-27,-7,6,3,11,10,13664
-1.89129,0.0883836,-0.247098,-175.125,190.875,-235.313,2.50049,-0.486816,0.0229492,-18,-34,-29,-16,17,-1,10,5,13681
-1.89129,0.0883836,-0.247098,-175.125,190.875,-235.313,2.50049,-0.486816,0.0229492,21,16,25,20,-28,-3,-27,-30,13697
-1.93714,-0.00475046,-0.281766,-126.75,183.375,-218.063,2.84961,-0.856445,0.059082,21,16,25,20,-28,-3,-27,-30,13714
-1.97159,-0.233693,-0.372544,-54.875,138.938,-153.375,2.44482,-0.30957,-0.0751953,19,31,2,3,0,2,15,-2,13777
-2.00547,-0.29215,-0.390765,-110.25,114,-132.938,2.12354,-0.231934,-0.0957031,19,5,-15,-13,2,-3,12,-12,13795
-2.0554,-0.340205,-0.403372,-154.563,91.875,-108.063,1.62695,-0.243652,-0.13916,19,5,-15,-13,2,-3,12,-12,13812
-2.11068,-0.380898,-0.409948,-165.75,64.625,-79.625,1.14795,-0.414551,-0.191406,-19,-25,-20,-21,18,1,17,14,13829
-2.11068,-0.380898,-0.409948,-165.75,64.625,-79.625,1.14795,-0.414551,-0.191406,-19,-26,2,0,-8,-8,-12,-3,13846
-2.158,-0.408402,-0.414804,-141.563,48.9375,-53.25,0.739258,-0.473145,-0.287598,-19,-26,2,0,-8,-8,-12,-3,13862
-2.19392,-0.423589,-0.418166,-106.813,30,-28.125,0.479492,-0.486816,-0.350586,17,-8,25,25,-21,-5,-31,-19,13879
-2.21407,-0.429612,-0.421769,-59.125,18.75,-7.9375,0.268555,-0.453613,-0.39209,-7,-3,-8,-5,0,-1,2,1,13896
-2.21833,-0.423432,-0.422815,-5.5625,2.5625,7,0.0839844,-0.449707,-0.49707,-3,-6,-7,-8,1,0,6,3,13913
-2.2145,-0.412329,-0.417541,33.8125,-8.9375,1.4375,-0.0698242,-0.439941,-0.658691,-10,-12,-6,-8,7,0,3,4,13931
-2.21123,-0.400923,-0.403544,49.5625,-21.3125,-15.3125,-0.161621,-0.418945,-0.78418,1,-10,-3,-5,0,-3,-4,0,13947
-2.2104,-0.389256,-0.387872,46.8125,-29.5,-11.6875,-0.019043,-0.48877,-0.875,4,-2,6,9,0,1,-7,-7,13965
-2.2109,-0.376196,-0.378012,34.4375,-29.4375,13,0.237793,-0.543945,-0.890625,9,3,2,7,-8,-5,-11,-4,13982
-2.2109,-0.376196,-0.378012,34.4375,-29.4375,13,0.237793,-0.543945,-0.890625,0,9,2,-7,1,-3,2,0,13999
-2.20555,-0.358838,-0.374342,32.0625,-31.3125,34.125,0.273438,-0.588867,-0.680664,6,1,-6,2,7,2,5,6,14016
-2.1896,-0.3373,-0.372927,44.4375,-42.75,51.125,0.36084,-0.694336,-0.445801,-4,4,6,3,1,-3,-5,-3,14033
-2.05017,-0.233702,-0.352676,198.813,-108.75,139.313,2.3252,-0.644531,0.0546875,-12,19,-36,-27,24,4,52,14,14103
-1.98992,-0.157922,-0.336045,182.25,-136.875,175.313,2.66113,-0.849609,0.213379,-14,-23,-64,-51,30,2,47,30,14119
-1.93624,-0.0875116,-0.322187,158.25,-113.313,171.438,2.5166,-0.581055,0.348633,-2,-23,-24,-34,14,-1,6,14,14136
-1.90112,-0.0221264,-0.313031,102.125,-88.6875,167.063,2.37598,-0.440918,0.441406,10,-20,16,23,-15,-5,-35,-10,14153
-1.87329,0.0421122,-0.30445,79.3125,-80.5625,167.563,2.31055,-0.290527,0.303711,0,-7,15,-13,-4,-2,-6,-5,14170
-1.85225,0.104832,-0.295745,58.5,-75.75,164.75,2.18262,-0.257324,0.145508,0,0,12,23,-14,-4,-20,-14,14187
-1.83716,0.169713,-0.28424,38.6875,-81.625,170.125,1.83252,-0.0859375,0.125977,0,13,-4,-2,-1,1,4,-2,14204
-1.83716,0.169713,-0.28424,38.6875,-81.625,170.125,1.83252,-0.0859375,0.125977,3,-3,-3,7,-9,-3,-9,-6,14221
-1.8175,0.225424,-0.266698,44.1875,-94.0625,166.125,1.48682,0.0107422,0.129883,-2,4,5,9,-6,0,-5,-4,14238
-1.79297,0.280398,-0.243677,51.5625,-102.625,156.875,1.18164,0.0644531,0.149902,2,30,13,-1,4,0,2,3,14255
-1.76323,0.332215,-0.217508,60.25,-103,143.688,0.920898,0.251953,0.17041,-2,5,-1,2,-2,-4,-3,-1,14272
-1.72908,0.376734,-0.19206,69.875,-89.6875,120.938,0.615723,0.395996,0.208984,-5,-13,-15,-3,1,-2,1,0,14289
-1.69177,0.414515,-0.168566,66.9375,-71,98.5625,0.220703,0.493164,0.285156,-2,-8,-3,-2,-3,-1,1,1,14306
-1.66035,0.446713,-0.151311,54.6875,-45.25,65.75,-0.0146484,0.688477,0.30957,1,-5,3,5,-2,0,-3,-2,14323
-1.66035,0.446713,-0.151311,54.6875,-45.25,65.75,-0.0146484,0.688477,0.30957,1,-3,6,3,-1,1,-1,-3,14341
-1.63997,0.467829,-0.141132,32,-21.5625,23.875,-0.12207,0.888184,0.282227,-1,-5,-10,-4,-1,-1,2,-2,14357
-1.67382,0.432433,-0.153262,-71.4375,40.0625,-103.688,0.0678711,0.675781,0.297363,20,-6,17,-6,-1,-4,-3,3,14423
-1.70924,0.380742,-0.170633,-84.4375,64.3125,-140.438,0.307617,0.591309,0.269531,-14,-40,-16,1,-7,-7,-8,-10,14441
-1.74816,0.310525,-0.194574,-89.125,93.75,-176.813,0.896484,0.481445,0.142578,11,-11,16,-16,0,2,5,7,14459
-1.79432,0.221811,-0.221849,-111.688,124.938,-234.25,2.5459,0.213867,-0.0727539,15,32,-8,-10,4,-2,5,10,14477
-1.84389,0.130519,-0.255651,-125.25,156.688,-230.188,2.5957,-0.349609,0.111328,-38,-22,-9,11,8,-7,10,-2,14494
-1.84389,0.130519,-0.255651,-125.25,156.688,-230.188,2.5957,-0.349609,0.111328,15,5,4,7,-10,2,-15,-6,14512
-1.88997,-0.0322652,-0.303642,-45.1875,128.563,-195.438,2.59961,-0.493652,-0.0317383,15,7,26,25,-14,-1,-18,-22,14529
-1.90916,-0.108417,-0.322476,-58.9375,121.375,-189.5,2.54688,-0.201172,-0.0498047,15,11,14,5,-6,0,2,-7,14547
-1.93952,-0.180845,-0.337606,-93,112,-179.875,2.46924,-0.13623,-0.107422,6,1,23,23,-22,-3,-39,-32,14563
-1.93952,-0.180845,-0.337606,-93,112,-179.875,2.46924,-0.13623,-0.107422,1,3,15,10,-14,-4,-20,-5,14580
-1.9911,-0.244555,-0.347506,-153.875,95.75,-157.813,2.22656,-0.149414,-0.158691,9,24,19,15,-17,3,-11,-23,14598
-2.05349,-0.2946,-0.354691,-184.25,80.625,-120.5,1.76318,-0.269043,-0.172852,-3,-2,-14,-8,10,0,13,8,14615
-2.10303,-0.343856,-0.361777,-149.813,76.6875,-99.25,1.28711,-0.59375,-0.262207,-15,-11,-37,-36,31,4,52,43,14633
-2.14086,-0.385202,-0.367814,-115.125,71.5,-86.3125,0.725586,-0.57666,-0.299316,-43,-46,-51,-50,27,1,40,55,14651
-2.16855,-0.421545,-0.365547,-69.625,43.8125,-71.6875,0.578125,-0.419434,-0.418945,-3,18,8,3,0,2,2,-2,14669
-2.19288,-0.439671,-0.361991,-52.5,22.1875,-37.75,0.446777,-0.427734,-0.558594,1,9,-7,-8,4,1,0,-11,14687
-2.1979,-0.408758,-0.357732,33.3125,-8.6875,1.375,-0.25,-0.588867,-0.564941,-1,3,17,15,-5,0,-5,-10,14757
-2.18719,-0.39455,-0.35247,48.375,-13.125,3,-0.133301,-0.562988,-0.622559,-3,5,5,0,-7,-1,-5,-1,14774
-2.17144,-0.381451,-0.35246,60.5625,-8.875,23.5,0.152344,-0.600098,-0.695313,7,4,11,19,-12,0,-19,-17,14792
-2.14952,-0.364662,-0.359606,67.875,-4.5,50.1875,0.259277,-0.585938,-0.614258,8,20,13,26,-16,-2,-19,-22,14810
-2.12558,-0.344986,-0.369364,61.75,-13.4375,72.0625,0.408691,-0.528809,-0.381836,-7,16,-19,-14,3,-2,18,4,14825
-2.09714,-0.343977,-0.378611,72,-14.375,71.875,1.19287,-0.46582,-0.255859,-7,2,-11,-7,20,2,25,21,14842
-2.09714,-0.343977,-0.378611,72,-14.375,71.875,1.19287,-0.46582,-0.255859,-1,-33,-35,-22,-7,0,-12,1,14859
-2.06656,-0.311589,-0.37805,88.1875,-47.0625,80.1875,1.85303,-0.619629,-0.145996,11,0,19,17,-6,-3,-11,-5,14875
-2.02672,-0.247032,-0.371262,119.688,-101.375,155.938,2.28418,-0.804199,0.0390625,-11,0,6,14,-7,-7,-8,3,14892
-1.97728,-0.166906,-0.355031,151.125,-137.313,189.625,2.49805,-0.780273,0.0556641,-1,-3,-14,-22,-10,-7,8,0,14910
-1.93198,-0.0843804,-0.335823,136.625,-139.25,198.938,2.62549,-0.539551,0.214355,11,-12,19,-9,-8,-3,-8,-9,14928
-1.89893,0.00184797,-0.317384,96.5625,-133.25,214.938,2.61621,-0.392578,0.322754,13,-12,-34,-27,22,1,17,23,14945
-1.89893,0.00184797,-0.317384,96.5625,-133.25,214.938,2.61621,-0.392578,0.322754,-11,-7,25,22,-11,-4,-21,-20,14962
-1.85496,0.0867946,-0.298174,123.688,-125.875,215.75,2.49512,-0.457031,0.362793,4,20,25,31,-22,-3,-15,-22,14980
-1.80802,0.172239,-0.277611,126.813,-119.75,221.25,2.30273,-0.179688,0.212891,22,51,-3,-3,2,2,15,0,14997
-1.77733,0.250892,-0.256401,74.9375,-107.813,207.125,1.9292,0.0834961,0.196777,4,19,-11,-6,4,0,17,6,15014
-1.70618,0.433372,-0.173291,43.5625,-105.25,143.75,0.776855,0.259766,0.17334,3,-9,0,-6,3,0,4,2,15071
-1.67359,0.475204,-0.142797,53.0625,-91.4375,113.5,0.441406,0.34375,0.185547,0,8,6,-3,-1,-1,-4,1,15088
-1.63664,0.508797,-0.116301,58.1875,-68,84,0.179688,0.509766,0.228027,1,4,11,6,1,-2,1,-2,15104
-1.63664,0.508797,-0.116301,58.1875,-68,84,0.179688,0.509766,0.228027,-9,-6,1,-1,3,-2,2,-1,15122
-1.60533,0.537411,-0.0980071,47.5,-39.125,55.3125,-0.00195313,0.697754,0.29834,2,3,-3,-3,-1,-3,2,1,15140
-1.58491,0.560359,-0.0885308,24.875,-12.0625,21.8125,-0.241699,0.815918,0.351074,0,0,7,3,-2,0,-3,-3,15157
-1.57808,0.566819,-0.0851453,-4.3125,3.6875,-26.25,-0.266602,0.811035,0.329102,-12,3,3,9,-2,-2,-3,-8,15174
-1.58928,0.553895,-0.0887414,-40.3125,18.5,-69.375,-0.0805664,0.770996,0.258301,-6,-12,-2,10,3,0,2,0,15191
-1.61822,0.518879,-0.103205,-65.125,40.75,-104.188,0.104004,0.787109,0.243652,-14,-1,6,12,2,1,-3,-4,15207
-1.65843,0.469046,-0.126972,-85.3125,71.125,-140.438,0.279785,0.79834,0.246094,-12,24,33,-20,-8,-3,-5,-8,15224
-1.65843,0.469046,-0.126972,-85.3125,71.125,-140.438,0.279785,0.79834,0.246094,7,-17,13,15,1,-1,5,2,15242
-1.71008,0.399237,-0.156568,-114.25,99.125,-182.5,0.737305,0.61084,0.212402,-11,-31,-43,-3,-7,-6,-7,-3,15258
-1.77734,0.308944,-0.187071,-162.75,125.563,-241.063,2.48682,0.238281,-0.065918,-14,-26,-16,-28,2,0,2,0,15275
-1.83894,0.207364,-0.225573,-147.938,172,-258.188,2.62939,-0.497559,0.120605,-17,-9,-5,8,-5,-2,-12,9,15292
-1.88348,0.107843,-0.258772,-112.688,171.938,-246.563,2.99219,-0.547852,0.145996,2,-11,-10,-4,-4,-4,-5,-12,15311
-1.90552,0.0143835,-0.290918,-57.8125,172.563,-224.75,2.86719,-0.508789,0.043457,66,32,69,58,-57,-5,-65,-55,15329
-2.05302,-0.271625,-0.372383,-185.688,89,-125.313,1.70361,-0.213379,-0.221191,59,16,30,30,-21,-3,-28,-40,15407
-2.05302,-0.271625,-0.372383,-185.688,89,-125.313,1.70361,-0.213379,-0.221191,-17,-9,-20,-14,11,1,7,12,15424
-2.11798,-0.319209,-0.377132,-190.75,71.3125,-99.8125,1.05664,-0.51416,-0.259766,3,-18,-6,-2,0,0,-1,-1,15441
-2.16784,-0.352292,-0.379429,-145.375,52.25,-70.0625,0.717285,-0.577148,-0.356934,-4,-14,-5,-5,2,1,4,8,15458
-2.20201,-0.377959,-0.380065,-98.875,35.5,-48,0.484863,-0.557129,-0.401367,-12,-9,14,10,-13,-2,-20,-8,15476
-2.20201,-0.377959,-0.380065,-98.875,35.5,-48,0.484863,-0.557129,-0.401367,-7,-15,-13,-15,7,-1,8,11,15494
-2.22683,-0.383414,-0.378798,-6.6875,-3.9375,7.5,0.23584,-0.541992,-0.522461,-7,-17,-11,-12,6,-2,-1,10,15511
-2.22683,-0.383414,-0.378798,-6.6875,-3.9375,7.5,0.23584,-0.541992,-0.522461,-5,-10,1,-5,4,-3,-1,2,15528
-2.21982,-0.369575,-0.37469,32.75,-17.5,10,-0.00390625,-0.594727,-0.605469,1,-4,6,4,-2,-2,-12,-10,15545
-2.21982,-0.369575,-0.37469,32.75,-17.5,10,-0.00390625,-0.594727,-0.605469,1,-4,6,4,-2,-2,-12,-10,15561
-2.21181,-0.349324,-0.366384,42.75,-28.5,7.8125,-0.194336,-0.625977,-0.683594,2,-1,8,8,-5,-2,-9,-8,15578
-2.20801,-0.325776,-0.356786,34.4375,-40.5,19.6875,-0.0932617,-0.625977,-0.734375,9,11,1,9,-8,0,-7,-6,15596
-2.20343,-0.303574,-0.352742,34.625,-36.5625,40.9375,0.140137,-0.561523,-0.744141,-13,19,1,-12,-4,1,4,0,15614
-2.17366,-0.259298,-0.362249,56.5,-29.9375,77.3125,0.481934,-0.478027,-0.461914,9,5,-26,-16,6,0,18,14,15631
-2.14337,-0.25119,-0.369363,74.375,-35.375,85.0625,1.14795,-0.594238,-0.250488,0,-12,-27,-15,15,0,20,14,15648
-2.09938,-0.209459,-0.366826,127.688,-68.625,98.0625,1.95166,-0.68457,-0.145508,-1,-30,8,1,-13,-3,-26,-1,15665
-1.98574,-0.0479198,-0.331364,172.875,-169.5,199.375,2.70313,-0.624023,-0.0136719,1,-24,-46,-32,12,-3,9,13,15723
-1.93924,0.0357857,-0.310535,133.25,-146.75,198.875,2.60303,-0.311035,0.0341797,1,-84,-30,-30,12,-4,-1,11,15740
-1.9192,0.114937,-0.290922,53.25,-132.125,192.813,2.37646,-0.465332,0.226563,1,-84,-30,-30,12,-4,-1,11,15757
-1.88641,0.18877,-0.271325,85.4375,-121.438,181.813,2.17041,-0.666992,0.254883,23,-14,38,17,-14,-2,-41,-10,15775
-1.88641,0.18877,-0.271325,85.4375,-121.438,181.813,2.17041,-0.666992,0.254883,23,-14,38,17,-14,-2,-41,-10,15791
-1.84031,0.256398,-0.250509,119.063,-111.625,168.875,2.22754,-0.547363,0.0717773,-18,21,-7,-6,-1,-1,11,-9,15808
-1.80295,0.323204,-0.231456,91.4375,-98.125,172.625,2.05518,0.00439453,0.0766602,6,21,15,18,-12,-3,-14,-8,15824
-1.77227,0.387074,-0.207669,63.625,-102.063,165,1.6084,0.183594,0.105469,-1,15,-10,-2,-7,1,10,4,15841
-1.73985,0.439732,-0.17642,55.0625,-110.5,149.375,1.11914,0.137695,0.149902,-3,-12,-9,-7,-3,0,1,2,15857
-1.70178,0.48526,-0.141137,61.4375,-109.563,126.125,0.838867,0.191406,0.15332,-2,-10,1,-4,2,3,1,0,15874
-1.66138,0.523394,-0.109544,69.9375,-90.375,106.125,0.632813,0.366699,0.179688,-5,-8,-8,-5,0,-1,-4,-1,15892
-1.61419,0.555382,-0.0823274,79,-62.8125,78.75,0.176758,0.512207,0.30127,2,1,5,1,-5,-2,-3,-2,15910
-1.61419,0.555382,-0.0823274,79,-62.8125,78.75,0.176758,0.512207,0.30127,-3,4,-4,2,1,-1,4,0,15927
-1.5733,0.579216,-0.0603072,61,-39.8125,36,-0.097168,0.687988,0.393066,3,-2,-1,1,-2,0,-5,-2,15943
-1.54324,0.591881,-0.0450139,38.8125,-21,0.5,-0.139648,0.743164,0.395508,-3,4,11,5,-12,-3,-1,-3,15960
-1.54324,0.591881,-0.0450139,38.8125,-21,0.5,-0.139648,0.743164,0.395508,-5,9,13,2,3,1,1,-4,15977
-1.63264,0.521816,-0.0828702,-122.813,62.125,-120.063,0.187988,0.726563,0.248047,-9,-9,3,-18,-7,-2,-2,-5,16041
-1.6997,0.462106,-0.111946,-153.25,89.375,-157.938,0.593262,0.452637,0.118652,27,-19,-6,-27,3,0,6,6,16059
-1.6997,0.462106,-0.111946,-153.25,89.375,-157.938,0.593262,0.452637,0.118652,-42,-1,-4,-15,5,-3,5,-6,16076
-1.84507,0.290173,-0.191631,-154.938,194.25,-229,2.43311,-0.520508,0.0844727,14,15,7,7,-3,2,-21,-4,16093
-1.89071,0.200464,-0.23523,-100.438,191.25,-210.188,2.7002,-0.717773,0.0844727,17,1,18,24,-15,0,-27,-21,16111
-1.89071,0.200464,-0.23523,-100.438,191.25,-210.188,2.7002,-0.717773,0.0844727,36,-9,31,9,-22,-1,-23,-17,16129
-1.90763,0.115001,-0.271314,-32.125,175.75,-199.125,2.79199,-0.732422,-0.0766602,10,-11,17,23,-16,1,-15,-16,16147
-1.92014,0.0343584,-0.304964,-28.9375,168.375,-185.438,2.78223,-0.457031,-0.155762,-67,32,-10,-8,1,0,5,1,16165
-1.9361,-0.0394657,-0.333948,-45.8125,151.75,-169.313,2.71973,-0.282715,-0.25,-26,29,-24,-18,8,4,22,14,16182
-1.9732,-0.104104,-0.353798,-110.375,122.188,-150.375,2.25,-0.201172,-0.215332,42,-13,-7,-9,1,-1,-7,4,16199
-2.03624,-0.157798,-0.36452,-184.875,92.1875,-127,1.68604,-0.259766,-0.26709,2,-5,-4,-2,3,1,8,-5,16216
-2.09907,-0.208842,-0.371234,-184.375,77.8125,-104.25,1.17578,-0.637207,-0.310059,-15,-5,-14,-12,15,-1,21,16,16234
-2.14575,-0.245269,-0.376739,-138.625,62.25,-72.5625,0.808105,-0.672363,-0.34375,16,-18,14,13,-15,-5,-27,-13,16250
-2.17342,-0.277225,-0.378914,-76.9375,43.5625,-52.375,0.553223,-0.562988,-0.457031,31,-2,20,20,-13,2,-18,-26,16267
-2.17342,-0.277225,-0.378914,-76.9375,43.5625,-52.375,0.553223,-0.562988,-0.457031,-21,-2,-22,-26,16,2,26,26,16284
-2.18544,-0.290307,-0.380036,-27.5625,18.875,-18,0.400879,-0.54248,-0.521973,-13,-20,-13,-11,2,-4,-1,11,16302
-2.16282,-0.248189,-0.371624,43.75,-29.3125,14.375,-0.25293,-0.604004,-0.666992,2,1,17,13,-9,-2,-16,-13,16370
-2.16282,-0.248189,-0.371624,43.75,-29.3125,14.375,-0.25293,-0.604004,-0.666992,6,17,12,13,-11,-2,-11,-16,16386
-2.15084,-0.212046,-0.367562,40.1875,-18.125,45.75,0.183594,-0.524414,-0.770996,-7,10,13,7,-8,1,-1,-8,16403
-2.1401,-0.188806,-0.372937,40.9375,-23.25,68.75,0.196777,-0.530762,-0.569336,4,29,-18,-11,11,3,19,22,16420
-2.12513,-0.166327,-0.380231,37.0625,-30.9375,86.9375,0.490234,-0.596191,-0.331543,-11,-8,-30,-24,6,-4,2,7,16437
-2.1005,-0.167031,-0.384922,58.625,-33.625,78.1875,1.36377,-0.688965,-0.236816,-11,-20,6,-14,5,1,2,2,16454
-2.06605,-0.128152,-0.379375,100.938,-68.25,89.25,2.1416,-0.690918,-0.119629,0,-16,-23,15,-7,-3,-22,-9,16471
-2.06605,-0.128152,-0.379375,100.938,-68.25,89.25,2.1416,-0.690918,-0.119629,16,18,29,38,-10,2,-7,-10,16488
-1.95362,0.015095,-0.343251,180.438,-155.5,173.375,2.7583,-0.736328,0.191406,3,4,-30,-4,6,-2,23,6,16505
-1.95362,0.015095,-0.343251,180.438,-155.5,173.375,2.7583,-0.736328,0.191406,13,16,31,7,-5,3,-1,0,16521
-1.8987,0.0890124,-0.319975,153.75,-136.375,175.563,2.55029,-0.47168,0.328613,-1,15,-17,-22,30,1,32,15,16538
-1.87056,0.161568,-0.295979,72.125,-129.25,176.625,2.22461,-0.278809,0.458008,-8,-16,-24,-32,12,-6,-9,-1,16555
-1.84611,0.224951,-0.275045,58.1875,-108,157.688,1.9165,-0.264648,0.203125,5,60,28,20,-19,0,-20,-22,16572
-1.84611,0.224951,-0.275045,58.1875,-108,157.688,1.9165,-0.264648,0.203125,7,21,11,3,-5,1,8,-7,16588
-1.83319,0.283187,-0.254171,21.875,-100.188,145.438,1.79248,-0.317383,0.130859,6,11,-8,-9,-4,-4,7,-1,16606
-1.81642,0.340489,-0.231604,28.4375,-101.125,143.188,1.55176,-0.174805,0.166504,-2,1,-1,-1,-4,1,1,0,16623
-1.65593,0.499552,-0.110017,86.625,-83.3125,86.1875,0.412598,0.394043,0.185059,-7,-30,2,-3,3,-3,-7,-5,16697
-1.61332,0.528959,-0.0846842,74.125,-60.6875,65.0625,0.105957,0.611816,0.237305,-6,-17,-13,-5,-4,0,-5,-3,16715
-1.61332,0.528959,-0.0846842,74.125,-60.6875,65.0625,0.105957,0.611816,0.237305,4,2,3,0,0,1,-4,-5,16732
-1.56301,0.570844,-0.0504633,2.9375,-18.0625,5.1875,-0.260742,0.821289,0.443359,4,2,3,0,0,1,-4,-5,16749
-1.56301,0.570844,-0.0504633,2.9375,-18.0625,5.1875,-0.260742,0.821289,0.443359,-3,-1,5,1,2,-1,-3,-3,16766
-1.56304,0.57533,-0.0472279,-25.875,5.4375,-30.0625,-0.188477,0.871582,0.364258,-5,-11,-3,-6,2,-1,2,1,16783
-1.58411,0.559844,-0.0552909,-64.25,30.1875,-74.125,0.0302734,0.880859,0.29541,-1,0,-2,10,4,-1,-1,-1,16800
-1.62619,0.522407,-0.0730959,-97.625,49.375,-109.563,0.221191,0.799316,0.274414,3,16,-8,-6,3,-1,3,5,16816
-1.67746,0.470074,-0.0987296,-114.313,77.5625,-141.75,0.489258,0.670898,0.219727,-18,0,12,1,-2,-1,-2,-7,16833
-1.74683,0.399873,-0.12986,-161.313,108.438,-187.75,1.75439,0.370117,-0.0175781,5,9,-21,22,8,1,8,11,16850
-1.74683,0.399873,-0.12986,-161.313,108.438,-187.75,1.75439,0.370117,-0.0175781,-3,-16,-13,-8,10,-4,11,7,16868
-1.74683,0.399873,-0.12986,-161.313,108.438,-187.75,1.75439,0.370117,-0.0175781,-19,9,13,35,-4,-3,-24,-4,16885
-1.9008,0.215702,-0.217235,-165.688,186.875,-219.188,2.69971,-0.619141,0.00488281,31,33,49,33,-24,-2,-40,-21,16902
-1.9008,0.215702,-0.217235,-165.688,186.875,-219.188,2.69971,-0.619141,0.00488281,-5,0,0,-2,3,2,11,4,16920
-1.9008,0.215702,-0.217235,-165.688,186.875,-219.188,2.69971,-0.619141,0.00488281,-3,11,4,-9,-4,4,12,-9,16938
-1.9976,-0.0238033,-0.31525,-51.4375,168.25,-159.688,2.64551,-0.394043,-0.22998,-2,-2,6,-10,-7,-8,-22,-2,16957
-2.10812,-0.19403,-0.360308,-141.313,79.5,-100.125,1.3125,-0.395508,-0.320801,-13,-13,-14,-13,15,-2,10,6,17025
-2.10812,-0.19403,-0.360308,-141.313,79.5,-100.125,1.3125,-0.395508,-0.320801,-17,-17,-18,-20,14,0,15,17,17041
-2.10812,-0.19403,-0.360308,-141.313,79.5,-100.125,1.3125,-0.395508,-0.320801,5,-6,16,10,-10,-1,-18,-9,17058
-2.20404,-0.279943,-0.362497,-54.4375,17.5,-27.625,0.380859,-0.427734,-0.433594,0,8,-12,-9,8,1,18,2,17075
-2.21165,-0.281778,-0.362221,-16.8125,4.875,-5.5625,0.171387,-0.51123,-0.474121,-5,-10,-13,-13,2,-2,2,8,17092
-2.21165,-0.281778,-0.362221,-16.8125,4.875,-5.5625,0.171387,-0.51123,-0.474121,-4,-13,0,-6,2,0,-1,0,17109
-2.21165,-0.281778,-0.362221,-16.8125,4.875,-5.5625,0.171387,-0.51123,-0.474121,2,-2,13,0,0,1,-1,1,17126
-2.20242,-0.263275,-0.355471,33.875,-14.9375,1.125,-0.15918,-0.529785,-0.576172,-2,0,3,3,-3,0,-3,-5,17142
-2.19527,-0.246633,-0.348151,41.625,-26.1875,7.75,-0.177734,-0.53418,-0.666016,3,9,7,4,-7,1,-10,-4,17160
-2.19527,-0.246633,-0.348151,41.625,-26.1875,7.75,-0.177734,-0.53418,-0.666016,0,11,3,9,1,-2,0,-7,17177
-2.1799,-0.221448,-0.344417,40.6875,-19.25,39.625,0.331543,-0.555664,-0.713379,1,-12,-11,-16,0,-1,1,3,17193
-2.16705,-0.203377,-0.348929,40.75,-24.625,60.8125,0.330078,-0.561523,-0.498047,18,57,26,14,-5,-1,-9,-3,17210
-2.16705,-0.203377,-0.348929,40.75,-24.625,60.8125,0.330078,-0.561523,-0.498047,-15,-10,0,-3,-4,-4,6,0,17228
-2.16705,-0.203377,-0.348929,40.75,-24.625,60.8125,0.330078,-0.561523,-0.498047,-12,-89,-21,-12,5,-10,2,10,17245
-2.11895,-0.16559,-0.348253,85.8125,-50.1875,54.25,2.16699,-0.571289,-0.263184,-6,11,31,32,-17,-2,-26,-24,17262
-2.06243,-0.118613,-0.343012,164.125,-79.9375,109.688,2.37695,-0.418945,-0.0327148,8,4,23,27,-13,0,-23,-21,17279
-1.91097,0.100204,-0.275032,61.3125,-141.938,177.563,2.27002,-0.265625,0.272949,18,-20,6,11,-9,-3,-20,-10,17340
-1.91097,0.100204,-0.275032,61.3125,-141.938,177.563,2.27002,-0.265625,0.272949,13,53,9,-2,4,1,-1,-1,17357
-1.86535,0.242774,-0.218028,60.8125,-134.438,161.063,2.0376,-0.460938,0.0957031,-16,-21,5,12,-10,-2,-22,-15,17374
-1.84003,0.308091,-0.193164,52.6875,-117.625,160.625,1.79297,-0.102051,0.11377,-3,5,2,7,0,0,8,-10,17392
-1.84003,0.308091,-0.193164,52.6875,-117.625,160.625,1.79297,-0.102051,0.11377,-4,7,8,11,-6,0,-6,-4,17409
-1.84003,0.308091,-0.193164,52.6875,-117.625,160.625,1.79297,-0.102051,0.11377,10,0,-1,-4,7,0,4,7,17426
-1.7735,0.425728,-0.134766,72,-117.063,149.75,1.22852,0.0830078,0.167969,5,-12,-2,-4,-5,-2,-6,0,17444
-1.7735,0.425728,-0.134766,72,-117.063,149.75,1.22852,0.0830078,0.167969,4,-8,-8,-1,-1,1,3,3,17461
-1.7319,0.474352,-0.104947,79.9375,-102.313,135.938,0.980957,0.219727,0.147949,0,-16,-21,-12,7,2,10,5,17478
-1.64876,0.553047,-0.0502504,70.0625,-67.0625,95.9375,0.277344,0.460938,0.337891,-5,-12,1,-4,-7,-4,-5,2,17495
-1.61479,0.58616,-0.0306777,44.3125,-37.125,66.125,-0.0273438,0.636719,0.426758,-2,-4,-1,-6,-6,-2,1,-1,17514
-1.61479,0.58616,-0.0306777,44.3125,-37.125,66.125,-0.0273438,0.636719,0.426758,-3,1,-3,1,0,-2,-5,-2,17531
-1.59551,0.629273,-0.0149535,-22.5,8.5,-3.0625,-0.220215,0.921875,0.416992,-2,-3,-8,0,-4,-1,-4,-6,17548
-1.59551,0.629273,-0.0149535,-22.5,8.5,-3.0625,-0.220215,0.921875,0.416992,-1,2,-3,-5,-5,-1,0,0,17564
-1.61483,0.625195,-0.0235669,-55.9375,32.375,-48.9375,-0.0639648,0.864258,0.311523,-6,-20,-7,-10,4,0,10,5,17581
-1.61483,0.625195,-0.0235669,-55.9375,32.375,-48.9375,-0.0639648,0.864258,0.311523,19,19,-5,-7,-8,-4,-10,-7,17598
-1.75937,0.50319,-0.0985659,-123.375,96.875,-141.938,0.862793,0.5,0.0136719,-20,38,-32,-27,15,-1,18,18,17658
-1.89157,0.326656,-0.179722,-139.875,201.125,-234.063,2.37793,-0.466797,-0.0166016,8,-9,15,12,-11,0,-18,-23,17675
-1.94105,0.23207,-0.218619,-110.625,192.875,-218.875,2.85596,-0.692383,-0.0878906,33,3,14,11,-14,0,-11,-12,17693
-1.94105,0.23207,-0.218619,-110.625,192.875,-218.875,2.85596,-0.692383,-0.0878906,33,1,34,29,-16,-1,-13,-23,17711
-1.94105,0.23207,-0.218619,-110.625,192.875,-218.875,2.85596,-0.692383,-0.0878906,-33,4,-26,-22,11,-2,16,6,17727
-1.9769,0.0602317,-0.283374,-23.0625,172.938,-182.125,2.8125,-0.606934,-0.246094,-41,5,-11,-14,3,3,-17,5,17744
-1.98357,-0.0122371,-0.307526,-17.1875,146.313,-163.063,2.46826,-0.369141,-0.222168,-36,7,18,13,-27,-7,-30,-1,17761
-1.98357,-0.0122371,-0.307526,-17.1875,146.313,-163.063,2.46826,-0.369141,-0.222168,51,5,4,2,-12,-2,-19,-10,17778
-2.05339,-0.131118,-0.333678,-131.75,95.1875,-129.625,1.74072,-0.320313,-0.327148,2,-1,-31,-27,22,2,39,12,17795
-2.1007,-0.180462,-0.338933,-137.5,73.875,-102.625,1.05225,-0.498047,-0.307129,-30,-28,-26,-24,22,-2,27,27,17813
-2.1007,-0.180462,-0.338933,-137.5,73.875,-102.625,1.05225,-0.498047,-0.307129,-29,-39,-13,-11,2,0,-14,6,17830
-2.1007,-0.180462,-0.338933,-137.5,73.875,-102.625,1.05225,-0.498047,-0.307129,34,14,31,25,-18,-3,-19,-37,17847
-2.1698,-0.232279,-0.338523,-81.0625,23.875,-36.5625,0.478027,-0.492188,-0.380859,11,15,10,6,-8,-1,-6,-20,17863
-2.19044,-0.24259,-0.340352,-56.625,16.875,-13.5625,0.287109,-0.481934,-0.40918,-6,8,2,4,-2,-1,2,-4,17880
-2.19044,-0.24259,-0.340352,-56.625,16.875,-13.5625,0.287109,-0.481934,-0.40918,-15,-7,-13,-14,9,-1,11,11,17898
-2.19044,-0.24259,-0.340352,-56.625,16.875,-13.5625,0.287109,-0.481934,-0.40918,-8,-10,-3,-6,5,0,3,14,17915
-2.17421,-0.211319,-0.34487,47.25,-7.1875,-1.8125,-0.139648,-0.619629,-0.680176,3,2,2,-4,-3,-3,1,3,17986
-2.17421,-0.211319,-0.34487,47.25,-7.1875,-1.8125,-0.139648,-0.619629,-0.680176,3,20,15,8,5,-2,4,2,18003
-2.17421,-0.211319,-0.34487,47.25,-7.1875,-1.8125,-0.139648,-0.619629,-0.680176,28,-14,-9,10,-3,-6,-7,-8,18021
-2.10742,-0.178032,-0.360542,53.8125,-25.5,73.5625,1.15479,-0.666504,-0.260742,5,5,30,15,-11,-6,-13,-11,18038
-2.08251,-0.137343,-0.359302,71.625,-61.4375,99.3125,1.83984,-0.655762,-0.0805664,-9,3,8,2,-4,0,-14,-7,18055
-2.08251,-0.137343,-0.359302,71.625,-61.4375,99.3125,1.83984,-0.655762,-0.0805664,-27,14,7,28,-20,-4,-14,-7,18072
-1.98868,-0.0058516,-0.337172,150.063,-117.625,159.5,2.5542,-0.515137,0.10791,-9,-10,-55,-46,29,2,34,27,18088
-1.98868,-0.0058516,-0.337172,150.063,-117.625,159.5,2.5542,-0.515137,0.10791,16,-11,-1,-10,10,1,13,7,18105
-1.94652,0.0640853,-0.3234,119.688,-113.813,169.813,2.42969,-0.563477,0.162109,16,-11,-1,-10,10,1,13,7,18122
-1.94652,0.0640853,-0.3234,119.688,-113.813,169.813,2.42969,-0.563477,0.162109,6,-42,-20,-9,4,-3,-2,9,18139
-1.92511,0.139585,-0.308834,56.875,-116,187.188,2.27441,-0.691406,0.262695,17,21,12,0,7,1,-5,-1,18156
-1.92511,0.139585,-0.308834,56.875,-116,187.188,2.27441,-0.691406,0.262695,9,-8,40,32,-31,-4,-39,-26,18173
-1.84754,0.286391,-0.265729,101.688,-121.875,179.938,2.22314,-0.214355,0.0957031,5,21,11,16,-12,-1,-7,-17,18190
-1.82164,0.354719,-0.242127,52.6875,-112.875,172.563,1.94531,0.0673828,0.0800781,-21,0,-2,0,-4,-2,-2,-2,18207
-1.82164,0.354719,-0.242127,52.6875,-112.875,172.563,1.94531,0.0673828,0.0800781,-1,-10,-11,-10,0,-1,5,7,18223
-1.77116,0.472446,-0.18194,43.3125,-118.375,147.938,1.17627,0.0664063,0.177734,-2,2,-5,-8,5,1,7,6,18241
-1.63535,0.595886,-0.0820046,84.4375,-76,87,0.169434,0.52832,0.243164,-7,-4,-16,-14,5,-1,9,6,18309
-1.59123,0.629292,-0.0558637,70.3125,-54.75,58.9375,-0.109863,0.704102,0.255371,2,17,15,8,0,-2,-9,1,18326
-1.59123,0.629292,-0.0558637,70.3125,-54.75,58.9375,-0.109863,0.704102,0.255371,-10,0,-11,-4,0,1,1,-1,18343
-1.54548,0.668912,-0.0269507,2.9375,-5.6875,-9.4375,-0.0688477,0.95459,0.408203,6,-4,-4,-6,7,-2,10,5,18360
-1.55292,0.661689,-0.0210627,-59.25,7.25,-50.25,0.078125,0.806641,0.507324,-6,-56,-14,-7,3,1,4,3,18378
-1.55292,0.661689,-0.0210627,-59.25,7.25,-50.25,0.078125,0.806641,0.507324,23,0,-5,-13,2,4,-2,3,18396
-1.62947,0.595744,-0.0433295,-116.25,52.875,-118.188,0.384766,0.624512,0.333984,-30,29,-11,3,-3,-5,-4,-8,18414
-1.62947,0.595744,-0.0433295,-116.25,52.875,-118.188,0.384766,0.624512,0.333984,-9,-12,-7,12,-2,-2,-6,-6,18432
-1.70282,0.537623,-0.0748919,-161.5,90.5625,-147.375,1.07324,0.468262,0.0693359,6,41,18,-16,-1,-3,4,7,18449
-1.70282,0.537623,-0.0748919,-161.5,90.5625,-147.375,1.07324,0.468262,0.0693359,-5,-7,-12,14,10,-2,-3,-4,18466
-1.88362,0.368795,-0.17332,-183.188,212.125,-229.313,2.53711,-0.53418,-0.0283203,-8,-25,-4,-2,0,-3,-8,-3,18482
-1.9436,0.269533,-0.22263,-127.625,222.313,-223.063,2.78418,-0.633789,-0.14502,9,3,23,15,-15,-6,-22,-10,18499
-1.9436,0.269533,-0.22263,-127.625,222.313,-223.063,2.78418,-0.633789,-0.14502,3,45,17,10,-4,-2,-8,-13,18517
-1.98369,0.0854401,-0.29881,-19.875,194.313,-196.563,2.65576,-0.474121,-0.375,-21,-4,-22,-20,10,7,30,12,18534
-1.98369,0.0854401,-0.29881,-19.875,194.313,-196.563,2.65576,-0.474121,-0.375,-5,-8,-4,-3,-11,-4,-27,-10,18551
-1.98382,0.00353741,-0.324494,3,161.563,-185.5,2.50391,-0.312012,-0.428223,12,6,-12,-12,8,-3,18,13,18567
-2.09753,-0.169993,-0.334267,-153.125,53.25,-116.75,1.09961,-0.568359,-0.472656,28,24,29,23,-12,0,-7,-22,18637
-2.17337,-0.237241,-0.327355,-82.875,28.0625,-57.5625,0.642578,-0.611328,-0.423828,-24,9,-21,-19,17,4,40,25,18654
-2.17337,-0.237241,-0.327355,-82.875,28.0625,-57.5625,0.642578,-0.611328,-0.423828,-24,9,-21,-19,17,4,40,25,18671
-2.17337,-0.237241,-0.327355,-82.875,28.0625,-57.5625,0.642578,-0.611328,-0.423828,-13,-10,7,8,-9,-4,-27,-3,18689
-2.18918,-0.252586,-0.326615,-44.8125,16.75,-27.6875,0.362305,-0.616211,-0.431152,-7,1,3,5,-4,-3,-5,-5,18706
-2.18918,-0.252586,-0.326615,-44.8125,16.75,-27.6875,0.362305,-0.616211,-0.431152,6,-10,-13,-15,9,1,14,12,18724
-2.18918,-0.252586,-0.326615,-44.8125,16.75,-27.6875,0.362305,-0.616211,-0.431152,6,-6,7,6,-10,-3,-16,-17,18740
-2.18918,-0.252586,-0.326615,-44.8125,16.75,-27.6875,0.362305,-0.616211,-0.431152,6,39,19,5,-12,-2,-11,-9,18757
-2.18918,-0.252586,-0.326615,-44.8125,16.75,-27.6875,0.362305,-0.616211,-0.431152,-13,-23,-19,-12,1,0,7,5,18774
-2.14857,-0.21322,-0.330091,51.125,-0.75,40.9375,0.246582,-0.679688,-0.587891,18,-4,1,15,3,0,0,-3,18791
-2.12908,-0.190191,-0.3416,58.625,-8.125,76.3125,0.188965,-0.578613,-0.526367,-1,-29,-17,-5,1,0,4,-5,18808
-2.12908,-0.190191,-0.3416,58.625,-8.125,76.3125,0.188965,-0.578613,-0.526367,-7,7,-7,0,17,1,6,5,18825
-2.07575,-0.152767,-0.362421,81.5625,-31.8125,97.875,1.13135,-0.625977,-0.30957,-19,-18,-38,-45,5,0,11,13,18842
-2.03716,-0.108565,-0.362648,110.438,-58.5625,112.063,2.10596,-0.470703,-0.181641,-42,-5,18,0,-11,-9,-18,0,18859
-2.03716,-0.108565,-0.362648,110.438,-58.5625,112.063,2.10596,-0.470703,-0.181641,7,-2,-7,2,3,1,15,6,18876
-1.94922,0.0528,-0.339527,129.938,-140.813,203.625,2.93994,-0.507324,0.0341797,-14,-22,-8,7,-6,-1,-10,-7,18894
-1.86648,0.294898,-0.281887,88.6875,-131.375,194.125,2.11865,-0.602539,0.20752,1,4,40,45,-26,-2,-32,-31,18953
-1.86648,0.294898,-0.281887,88.6875,-131.375,194.125,2.11865,-0.602539,0.20752,-3,28,4,2,-1,1,7,2,18970
-1.83245,0.368232,-0.259646,76.9375,-116,185.5,2.02051,-0.10791,0.0146484,8,14,-2,-3,-10,-4,2,-1,18987
-1.83245,0.368232,-0.259646,76.9375,-116,185.5,2.02051,-0.10791,0.0146484,-2,-17,-8,-8,3,0,-3,3,19004
-1.7765,0.491815,-0.202284,45.4375,-120.375,155.063,1.20996,-0.0107422,0.164063,1,-1,1,-4,5,1,4,2,19021
-1.73164,0.541551,-0.162261,69,-125,135.125,0.925781,0.0742188,0.155273,-4,-15,-11,-12,4,-2,8,8,19038
-1.73164,0.541551,-0.162261,69,-125,135.125,0.925781,0.0742188,0.155273,-6,0,-12,-4,12,-1,-1,1,19054
-1.61858,0.61523,-0.0862287,104.625,-88.5,86.0625,0.411133,0.543945,0.213379,-1,3,17,6,-7,-3,-5,-1,19072
-1.61858,0.61523,-0.0862287,104.625,-88.5,86.0625,0.411133,0.543945,0.213379,1,-7,-3,3,2,-2,-5,-4,19089
-1.56611,0.645536,-0.0564111,83.1875,-58,56.1875,0.0273438,0.75293,0.3125,-1,-1,-3,2,3,0,-3,-1,19107
-1.56611,0.645536,-0.0564111,83.1875,-58,56.1875,0.0273438,0.75293,0.3125,6,14,9,1,2,1,2,1,19124
-1.56611,0.645536,-0.0564111,83.1875,-58,56.1875,0.0273438,0.75293,0.3125,6,14,9,1,2,1,2,1,19141
-1.51247,0.681661,-0.0212056,2.5,-9.25,-14.9375,-0.210938,0.94873,0.415039,-1,8,14,-4,6,0,5,1,19158
-1.51247,0.681661,-0.0212056,2.5,-9.25,-14.9375,-0.210938,0.94873,0.415039,-13,-35,-11,-14,2,2,5,2,19174
-1.51593,0.680348,-0.0192461,-36.4375,11.625,-46.5,-0.125,0.849121,0.390137,13,0,1,-2,3,3,6,5,19192
-1.51593,0.680348,-0.0192461,-36.4375,11.625,-46.5,-0.125,0.849121,0.390137,17,-17,16,13,-1,0,-3,0,19209
-1.78613,0.406886,-0.158713,-171.5,158.938,-243.813,2.56982,-0.196777,-0.0722656,-5,-38,-13,-8,0,3,2,0,19272
-1.78613,0.406886,-0.158713,-171.5,158.938,-243.813,2.56982,-0.196777,-0.0722656,7,12,-5,-1,-10,-3,-8,-4,19289
-1.84963,0.311582,-0.198591,-141.625,170.625,-238.625,2.85205,-0.731934,0.0415039,11,-23,28,5,-19,-5,-27,-17,19305
-1.84963,0.311582,-0.198591,-141.625,170.625,-238.625,2.85205,-0.731934,0.0415039,-10,3,-18,-20,8,2,22,0,19321
-1.90851,0.134487,-0.270181,-43.0625,177,-199.375,3.11719,-0.710449,-0.10498,-41,4,-15,-12,8,0,7,8,19338
-1.90851,0.134487,-0.270181,-43.0625,177,-199.375,3.11719,-0.710449,-0.10498,19,21,-2,-1,4,1,11,0,19355
-2.00668,-0.0607347,-0.349393,-130.875,115.125,-118.688,1.71045,-0.30957,-0.172363,0,6,-15,-16,11,0,29,11,19372
-2.00668,-0.0607347,-0.349393,-130.875,115.125,-118.688,1.71045,-0.30957,-0.172363,-26,-35,-28,-26,21,-1,22,24,19389
-2.05879,-0.107434,-0.361446,-151.563,81.1875,-86.0625,1.25391,-0.405273,-0.222168,-11,-34,0,1,-4,-8,-30,-9,19407
-2.05879,-0.107434,-0.361446,-151.563,81.1875,-86.0625,1.25391,-0.405273,-0.222168,19,10,15,14,-19,0,-8,-19,19424
-2.14772,-0.157874,-0.370913,-108.938,32.3125,-36.8125,0.630371,-0.447754,-0.512695,2,13,3,0,-1,-2,3,-8,19441
-2.14772,-0.157874,-0.370913,-108.938,32.3125,-36.8125,0.630371,-0.447754,-0.512695,-18,-8,-16,-20,9,1,12,14,19458
-2.14772,-0.157874,-0.370913,-108.938,32.3125,-36.8125,0.630371,-0.447754,-0.512695,-6,-16,-6,-6,2,-2,-2,0,19475
-2.1829,-0.17762,-0.366702,22.125,-3.5,-2.5625,0.0102539,-0.482422,-0.681641,-4,-10,0,-4,2,-1,0,-1,19492
-2.1829,-0.17762,-0.366702,22.125,-3.5,-2.5625,0.0102539,-0.482422,-0.681641,-5,-10,0,0,4,-2,-8,-6,19510
-2.17735,-0.169198,-0.362782,35.5625,-6.9375,-4.3125,-0.202637,-0.519531,-0.677734,2,-3,4,4,-4,-3,-6,-3,19527
-2.15381,-0.144593,-0.355679,48.625,-24.625,18.25,0.254883,-0.477539,-0.700684,31,-4,-13,13,-3,0,-9,-2,19596
-2.09953,-0.119826,-0.352731,89.25,-30.9375,55.875,0.519043,-0.662109,-0.182617,22,13,25,20,-13,-3,-23,-26,19614
-2.05289,-0.101278,-0.350981,131.063,-42.8125,66,1.53711,-0.709473,-0.163574,42,22,31,17,-11,-1,-12,-20,19631
-2.05289,-0.101278,-0.350981,131.063,-42.8125,66,1.53711,-0.709473,-0.163574,-33,35,34,30,-17,0,-25,-24,19648
-1.99098,-0.0456295,-0.338433,179.875,-101.875,127.625,2.03027,-0.478027,-0.0195313,-32,31,12,29,-22,-6,-21,-20,19664
-1.93189,0.0361272,-0.310527,170.063,-163.125,186.563,2.59375,-0.458984,0.0595703,-30,28,-24,-29,9,2,43,2,19681
-1.88089,0.11732,-0.278563,139.063,-163,189.563,2.77148,-0.25293,0.152344,-10,-37,-35,-36,18,-2,10,28,19698
-1.862,0.190205,-0.256389,44,-122,181,2.41602,-0.312988,0.257324,17,0,11,28,-8,-6,-25,3,19716
-1.84438,0.260271,-0.236859,38.125,-108.313,177.5,2.10889,-0.520508,0.307129,41,-4,10,0,3,-2,-4,-11,19733
-1.81415,0.326821,-0.217753,70.8125,-99.75,171.188,2.1543,-0.67627,0.120117,24,-4,37,44,-39,-9,-49,-42,19749
-1.81415,0.326821,-0.217753,70.8125,-99.75,171.188,2.1543,-0.67627,0.120117,-8,43,42,35,-27,-1,-17,22,19767
-1.78297,0.391756,-0.201054,72.4375,-85.5625,171,2.09717,-0.250488,0.0922852,-33,20,-17,-23,18,4,40,8,19785
-1.78297,0.391756,-0.201054,72.4375,-85.5625,171,2.09717,-0.250488,0.0922852,-15,-14,-31,-28,13,-1,19,5,19802
-1.75225,0.454195,-0.18133,64.875,-85.5,165.375,1.78125,-0.0532227,0.101074,10,-17,-3,-1,-1,1,-4,0,19819
-1.67459,0.56195,-0.119959,70.75,-103.813,152.375,1.03418,0.199219,0.111328,11,7,3,-5,1,-1,11,-3,19835
-1.67459,0.56195,-0.119959,70.75,-103.813,152.375,1.03418,0.199219,0.111328,-6,3,-8,-9,5,0,12,9,19852
-1.4987,0.714308,0.0178803,41.75,-43.875,57,-0.0463867,0.697266,0.209961,0,17,7,2,4,2,2,1,19921
-1.46624,0.73627,0.0399932,26.6875,-23.75,23.375,-0.231445,0.692383,0.412598,1,6,9,2,-5,-2,-5,-4,19938
-1.44411,0.73937,0.0519194,12.625,-3.5625,-27.3125,-0.145508,0.697266,0.466797,-3,-15,3,6,-3,-5,-4,-3,19955
-1.44364,0.728502,0.0466512,-13.5,24.9375,-69,0.0170898,0.834473,0.390137,-16,-27,12,7,7,1,4,-4,19973
-1.47659,0.695735,0.0203918,-51.8125,50.8125,-108.125,0.126953,0.910156,0.404785,14,0,-15,-14,-3,-6,1,6,19989
-1.47659,0.695735,0.0203918,-51.8125,50.8125,-108.125,0.126953,0.910156,0.404785,-4,10,-1,9,1,-2,-6,-2,20007
-1.5291,0.644818,-0.0162869,-88.125,74.9375,-153.625,0.476074,0.847168,0.208008,2,-19,-13,-25,6,2,9,5,20024
-1.60565,0.571245,-0.0586501,-150.188,98.625,-211.25,1.89551,0.530273,-0.0869141,-7,6,27,8,14,-1,5,4,20042
-1.69689,0.474401,-0.114353,-181.5,160.563,-265.563,2.77246,-0.300293,0.0141602,-10,-16,-11,-19,20,3,28,20,20059
-1.69689,0.474401,-0.114353,-181.5,160.563,-265.563,2.77246,-0.300293,0.0141602,3,-27,-5,11,-13,-6,-28,-10,20077
-1.75959,0.37648,-0.165267,-119.625,175.438,-256.813,2.90576,-0.84082,0.074707,-3,-9,16,30,-18,-4,-25,-12,20094
-1.80147,0.286125,-0.211625,-76.6875,176.938,-227.188,2.87061,-0.811523,-0.0883789,18,-14,31,35,-36,-5,-54,-28,20111
-1.82743,0.202535,-0.253174,-45.5625,169.75,-204.625,2.80322,-0.660645,-0.140625,-66,25,-39,-34,32,7,41,24,20128
-1.8492,0.126492,-0.285426,-47.375,145.875,-186.125,2.63916,-0.382324,-0.180664,-11,-16,2,3,-12,-5,-28,-30,20145
-1.88613,0.0589518,-0.310252,-98.9375,124.313,-164.313,2.31152,-0.166992,-0.169434,21,13,14,14,-15,-3,-11,-1,20162
-1.93931,0.00190759,-0.330584,-150.813,109.688,-134.625,1.896,-0.304688,-0.285156,4,25,-5,-2,4,3,25,7,20180
-2.08002,-0.132171,-0.37014,-100.188,57.4375,-62.375,0.645508,-0.451172,-0.438477,23,-5,8,2,-6,-2,-8,-6,20250
-2.08002,-0.132171,-0.37014,-100.188,57.4375,-62.375,0.645508,-0.451172,-0.438477,-21,4,-13,-11,12,-1,18,2,20267
-2.10745,-0.15619,-0.37558,-66.5625,40.4375,-34.8125,0.373047,-0.472656,-0.524902,-6,-15,-11,-7,3,-1,1,10,20284
-2.12261,-0.160309,-0.378701,-32.25,15.25,-4.5625,0.128906,-0.563965,-0.555664,-6,-16,-1,-5,4,-3,-1,3,20301
-2.11752,-0.138484,-0.378228,36.4375,-7.125,5.5,-0.279297,-0.626953,-0.644043,-5,-15,-2,-3,0,-3,-12,-13,20318
-2.11752,-0.138484,-0.378228,36.4375,-7.125,5.5,-0.279297,-0.626953,-0.644043,3,5,12,10,-9,-2,-2,-5,20335
-2.1093,-0.128146,-0.37202,48.0625,-18.5,2.5625,-0.142578,-0.596191,-0.726563,2,16,1,3,-2,-2,-5,-6,20352
-2.09349,-0.110712,-0.366659,53.8125,-20.875,36.25,0.229492,-0.550781,-0.757813,3,27,-11,10,-2,-1,-4,-1,20369
-2.09349,-0.110712,-0.366659,53.8125,-20.875,36.25,0.229492,-0.550781,-0.757813,-1,1,2,-10,12,4,19,13,20387
-2.07715,-0.0927722,-0.368966,56,-27.0625,63.3125,0.318848,-0.647949,-0.525391,-3,-26,-22,-24,17,0,14,12,20404
-2.0548,-0.0908034,-0.371148,59.1875,-29.75,67.125,1.0332,-0.666992,-0.279297,10,15,22,24,-22,-5,-40,-14,20421
-2.02111,-0.058532,-0.367165,97.5,-51.9375,77.5625,1.91846,-0.629395,-0.0136719,10,15,22,24,-22,-5,-40,-14,20439
-2.02111,-0.058532,-0.367165,97.5,-51.9375,77.5625,1.91846,-0.629395,-0.0136719,5,38,82,48,-35,-2,-51,-35,20456
-1.91814,0.095547,-0.332163,153.625,-152.688,205.438,2.72607,-0.640137,0.200684,-40,39,-16,-14,14,10,61,8,20473
-1.91814,0.095547,-0.332163,153.625,-152.688,205.438,2.72607,-0.640137,0.200684,11,-49,-55,-33,17,-4,8,29,20490
-1.87287,0.180109,-0.309713,120.5,-137.813,209.438,2.65576,-0.303711,0.344238,9,-45,-19,-38,19,6,20,15,20508
-1.81604,0.494666,-0.231697,16.75,-104.875,188.375,1.78564,-0.300781,0.183105,22,47,6,9,-10,3,12,-7,20570
-1.79042,0.563308,-0.204758,34.6875,-110.313,176,1.49902,-0.108398,0.131836,-32,-1,-41,-34,27,4,46,17,20587
-1.79042,0.563308,-0.204758,34.6875,-110.313,176,1.49902,-0.108398,0.131836,10,-8,16,12,-12,-5,-18,-9,20604
-1.75403,0.619795,-0.173257,53.1875,-108.438,158.75,1.23291,0.175781,0.0478516,-9,0,-3,-7,-3,1,14,7,20621
-1.71587,0.667479,-0.140606,53,-97.625,130.938,0.87207,0.290039,0.0703125,-1,-5,-21,-18,13,4,8,8,20638
-1.67526,0.705088,-0.107809,54.5625,-83.9375,100.125,0.460938,0.314941,0.194824,-4,-14,-7,-5,2,-4,-3,-1,20655
-1.67526,0.705088,-0.107809,54.5625,-83.9375,100.125,0.460938,0.314941,0.194824,0,-21,-12,-9,-1,-4,-2,2,20672
-1.63095,0.733688,-0.0780849,61.8125,-62,65.875,0.180664,0.433105,0.203125,0,-21,-12,-9,-1,-4,-2,2,20689
-1.59155,0.756839,-0.0546247,55.625,-40.3125,35.625,-0.00585938,0.609863,0.249023,-2,-3,-4,4,-4,-1,-6,-6,20706
-1.56347,0.777335,-0.0367732,28.375,-21.1875,15.125,-0.217285,0.6875,0.331055,-2,-5,1,-3,-3,-1,0,-3,20724
-1.55311,0.788142,-0.0247164,-11.9375,-7.0625,-18.75,-0.256348,0.773438,0.358887,2,7,2,-1,-1,0,0,-1,20741
-1.56405,0.78189,-0.0235575,-49.5,12.625,-61.0625,-0.0810547,0.817871,0.321289,-1,9,3,-18,3,-2,4,5,20758
-1.60174,0.74889,-0.0397382,-79.375,37.75,-101.438,0.136719,0.776855,0.27832,-2,20,11,6,-7,-4,-7,-3,20775
-1.6549,0.702041,-0.0671953,-102.625,68.9375,-134.125,0.341309,0.718262,0.254395,-16,-1,16,28,-7,-5,-15,-16,20792
-1.6549,0.702041,-0.0671953,-102.625,68.9375,-134.125,0.341309,0.718262,0.254395,-3,-3,6,-5,1,1,4,-1,20808
-1.79572,0.546792,-0.138457,-159.25,135.188,-232,2.45801,0.0986328,-0.125488,5,-24,-54,-38,12,2,24,18,20825
-1.93262,0.352653,-0.229162,-121.813,198.438,-221.625,2.89209,-0.772461,0.0493164,45,20,14,16,-20,0,-4,-15,20892
-1.96282,0.265997,-0.269302,-51.75,193.625,-190.625,2.89893,-0.739746,-0.0273438,5,2,-18,-12,7,4,25,9,20910
-1.96282,0.265997,-0.269302,-51.75,193.625,-190.625,2.89893,-0.739746,-0.0273438,5,2,-18,-12,7,4,25,9,20927
-1.98452,0.186519,-0.306451,-38,184.563,-169,2.68408,-0.60791,-0.0952148,-40,36,-6,0,-6,0,-5,-1,20944
-2.00484,0.117068,-0.336069,-45.4375,158.313,-146.75,2.46826,-0.425781,-0.104492,-33,40,3,3,-8,-5,-15,-7,20960
-2.03875,0.0571861,-0.356811,-92,128,-128.875,2.15967,-0.256348,-0.155273,33,29,-1,0,0,-1,6,-4,20977
-2.08827,0.00487905,-0.370269,-140.875,105.063,-113.875,1.74463,-0.275879,-0.280762,33,29,-1,0,0,-1,6,-4,20994
-2.13932,-0.0469083,-0.379197,-146.125,88,-96.3125,1.21631,-0.423828,-0.300781,-10,-31,-20,-15,12,-3,11,13,21012
-2.18219,-0.0810463,-0.383799,-122.813,58.4375,-63.875,0.766113,-0.502441,-0.407715,6,-2,1,-2,-1,-1,-2,-2,21028
-2.21259,-0.107637,-0.386834,-84.1875,35.6875,-33.9375,0.473633,-0.507813,-0.451172,6,-2,1,-2,-1,-1,-2,-2,21045
-2.23071,-0.117237,-0.38864,-47.4375,13.125,-7.8125,0.270508,-0.510742,-0.480957,-11,-3,-4,-7,4,0,11,18,21062
-2.23071,-0.117237,-0.38864,-47.4375,13.125,-7.8125,0.270508,-0.510742,-0.480957,-11,-3,-4,-7,4,0,11,18,21078
-2.23615,-0.113812,-0.388982,-9.0625,-5.9375,10.8125,0.12207,-0.527344,-0.54541,0,-2,3,2,-3,-2,-5,-2,21095
-2.23105,-0.10357,-0.38702,25.625,-16.9375,14.1875,-0.0273438,-0.542969,-0.603516,2,4,-8,-9,0,0,9,0,21112
-2.23105,-0.10357,-0.38702,25.625,-16.9375,14.1875,-0.0273438,-0.542969,-0.603516,1,-2,1,5,-4,-2,-9,-8,21129
-2.209,-0.080928,-0.376809,49.75,-24.4375,8.8125,-0.0400391,-0.567871,-0.695801,7,7,1,2,-11,-2,-13,-10,21146
-2.1386,-0.0416944,-0.377835,65.0625,-44.125,62.125,1.31934,-0.609375,-0.275391,9,-28,-29,-34,17,2,10,19,21209
-2.1386,-0.0416944,-0.377835,65.0625,-44.125,62.125,1.31934,-0.609375,-0.275391,-5,-24,-6,-6,5,-5,-12,1,21227
-2.10214,-0.00729561,-0.371061,104.75,-68,74.0625,2.08398,-0.699219,-0.0869141,6,12,3,24,-17,-1,-14,-12,21245
-2.05165,0.0586437,-0.359817,143.5,-120,149.75,2.42285,-0.78418,0.0493164,-9,14,11,23,7,2,22,0,21262
-1.98924,0.137843,-0.337065,172.688,-157.125,176.25,2.60205,-0.805664,0.207031,-16,-15,-45,-20,24,1,45,27,21279
-1.92758,0.216891,-0.313566,164.563,-147.438,184.625,2.43066,-0.587402,0.285645,1,-3,32,36,-16,-3,-25,-16,21297
-1.89344,0.296407,-0.29049,81.25,-136.125,193.625,2.40967,-0.330566,0.405273,29,20,7,-10,8,3,11,1,21314
-1.89344,0.296407,-0.29049,81.25,-136.125,193.625,2.40967,-0.330566,0.405273,-17,-7,12,21,-18,-4,-45,-18,21331
-1.85331,0.370207,-0.268497,94.1875,-119.938,184.125,2.24463,-0.271484,0.321289,0,18,24,26,-29,-3,-19,-21,21347
-1.796,0.503437,-0.221326,35.3125,-106.563,164.375,1.63818,0.0151367,0.145508,-2,5,-12,-8,-1,1,9,3,21365
-1.796,0.503437,-0.221326,35.3125,-106.563,164.375,1.63818,0.0151367,0.145508,2,-11,-7,-7,5,-3,1,3,21382
-1.76415,0.556697,-0.187139,38.75,-116.438,149.5,1.25439,0.0249023,0.179688,-1,-3,-2,-2,-2,-3,-2,-1,21398
-1.72196,0.603648,-0.149452,59.625,-112.938,129.063,0.964355,0.147461,0.137695,-4,-12,-4,-4,-8,-4,0,1,21416
-1.67434,0.642675,-0.113128,73.8125,-97.625,105.563,0.674316,0.331055,0.162598,-2,-13,1,1,-3,-4,-8,-2,21434
-1.61938,0.672935,-0.0789619,86.8125,-75.4375,79.1875,0.316895,0.436523,0.221191,-3,-1,-4,-1,0,-3,-3,-1,21450
-1.61938,0.672935,-0.0789619,86.8125,-75.4375,79.1875,0.316895,0.436523,0.221191,-6,-9,-1,1,0,1,-5,-1,21468
-1.50405,0.732459,-0.00789532,26.3125,-18.6875,-0.6875,-0.187012,0.77002,0.333496,-5,6,-6,-2,1,1,1,-3,21541
-1.51499,0.723946,-0.00048746,-72.3125,20.6875,-61.8125,0.0234375,0.595703,0.408691,-10,-10,0,1,0,-1,-3,-4,21558
-1.56683,0.692839,-0.0216778,-113.625,47.125,-94.375,0.175781,0.547852,0.356445,-3,-8,-25,-20,4,1,5,4,21575
-1.63039,0.648854,-0.054146,-126.75,78.125,-123.313,0.42627,0.508789,0.193848,4,-8,-3,12,3,-1,-1,-2,21592
-1.63039,0.648854,-0.054146,-126.75,78.125,-123.313,0.42627,0.508789,0.193848,-11,-22,-15,-5,4,2,6,5,21609
-1.7041,0.592038,-0.0923402,-147.25,104.438,-153.438,1.49561,0.278809,0.00390625,-37,24,-12,-11,4,2,3,-3,21626
-1.79298,0.522615,-0.144945,-174.875,160.938,-173.5,2.42529,-0.350098,-0.0102539,-6,-57,7,4,-11,-2,-19,-6,21642
-1.86912,0.442973,-0.20153,-143,197.75,-183.75,2.68018,-0.708496,0.0263672,-14,-29,11,14,-11,-3,-14,-12,21660
-1.91138,0.362146,-0.253231,-62.875,202.313,-177.313,2.94092,-0.813477,-0.0742188,20,19,11,-3,-9,-1,-2,0,21677
-1.93598,0.283509,-0.299187,-28.9375,195.375,-168.125,2.85498,-0.713867,-0.22998,1,19,19,30,-22,-4,-23,-26,21695
-1.93598,0.283509,-0.299187,-28.9375,195.375,-168.125,2.85498,-0.713867,-0.22998,9,37,-8,-7,3,0,12,-4,21713
-1.95234,0.210448,-0.336261,-21,172.188,-157.25,2.59668,-0.601074,-0.190918,0,16,-14,-15,11,3,9,1,21730
-1.97119,0.147033,-0.361128,-41.25,133.938,-141.563,2.22412,-0.377441,-0.190918,5,5,-11,-9,3,-2,3,3,21747
-2.00566,0.0918424,-0.374958,-93.875,100.063,-128.313,1.81299,-0.252441,-0.234863,-8,-15,-6,-5,5,-2,2,3,21764
-2.05749,0.0376009,-0.380977,-145.563,74.25,-111.063,1.33936,-0.288086,-0.262695,-16,-19,-6,-6,9,2,19,16,21781
-2.11224,-0.00114341,-0.381464,-156.125,47.5,-81.75,0.95166,-0.433105,-0.319336,-13,-25,-8,-5,1,-3,0,4,21797
-2.19951,-0.0688356,-0.378963,-39.9375,14.4375,-24.3125,0.149414,-0.523926,-0.424805,0,4,0,4,0,0,0,1,21859
-2.20087,-0.0704783,-0.377281,4.1875,4,-13.125,-0.0712891,-0.518555,-0.513184,-7,-20,-11,-13,6,0,8,19,21875
-2.19254,-0.0667389,-0.372692,38.625,-6,-12.4375,-0.192871,-0.529297,-0.622559,-6,-17,-3,-4,4,-4,-8,-1,21892
-2.19254,-0.0667389,-0.372692,38.625,-6,-12.4375,-0.192871,-0.529297,-0.622559,-1,-7,5,-1,-3,-3,-12,-6,21909
-2.19254,-0.0667389,-0.372692,38.625,-6,-12.4375,-0.192871,-0.529297,-0.622559,0,2,15,3,-6,1,-4,-3,21926
-2.16677,-0.0614961,-0.35814,64.875,-16.375,-5.625,0.0854492,-0.506348,-0.812012,0,1,11,3,-2,0,3,1,21942
-2.16677,-0.0614961,-0.35814,64.875,-16.375,-5.625,0.0854492,-0.506348,-0.812012,-1,-9,-12,-16,-2,-4,3,2,21959
-2.16677,-0.0614961,-0.35814,64.875,-16.375,-5.625,0.0854492,-0.506348,-0.812012,-8,-19,-12,11,3,-2,-4,-1,21976
-2.11141,-0.0557869,-0.368235,57.6875,-6.75,48.4375,0.838379,-0.652344,-0.200195,12,-1,25,9,17,8,15,15,21993
-2.08143,-0.0322926,-0.36607,86.125,-39,55.1875,1.60303,-0.868164,-0.0693359,28,-39,-13,14,-14,-8,-38,-31,22010
-2.08143,-0.0322926,-0.36607,86.125,-39,55.1875,1.60303,-0.868164,-0.0693359,-24,59,64,60,-45,-5,-55,-50,22027
-2.04007,0.0267803,-0.353856,118.625,-110.75,132.688,2.21826,-0.956543,-0.00146484,-32,43,-61,-48,28,5,79,45,22044
-1.98919,0.108372,-0.333554,142,-153,186.5,2.625,-0.704102,0.171387,-1,-9,-33,-23,27,0,46,40,22062
-1.94018,0.18804,-0.309643,129.938,-150.063,184.75,2.74316,-0.470215,0.229004,-6,-56,-28,-29,22,1,25,17,22079
-1.91992,0.262066,-0.296989,50.125,-107.813,186.25,2.2666,-0.265625,0.29834,1,-38,-4,-29,2,-13,-7,17,22097
-1.91992,0.262066,-0.296989,50.125,-107.813,186.25,2.2666,-0.265625,0.29834,24,-10,21,15,-22,-4,-23,-27,22114
-1.8103,0.522165,-0.244587,49.75,-81.625,155.875,1.54443,0.0795898,0.0878906,1,0,0,1,-8,-4,-3,-3,22178
-1.8103,0.522165,-0.244587,49.75,-81.625,155.875,1.54443,0.0795898,0.0878906,5,2,-6,-3,-4,-1,5,4,22194
-1.8103,0.522165,-0.244587,49.75,-81.625,155.875,1.54443,0.0795898,0.0878906,-1,-30,-4,-1,8,0,0,3,22211
-1.74067,0.615503,-0.190699,63.25,-95.75,120.688,0.962402,0.257324,0.0805664,-1,-30,-4,-1,8,0,0,3,22228
-1.69169,0.647278,-0.15767,78.9375,-87.125,94.8125,0.588379,0.38623,0.137695,-4,-5,-17,-16,1,0,2,3,22245
-1.69169,0.647278,-0.15767,78.9375,-87.125,94.8125,0.588379,0.38623,0.137695,-6,-1,3,5,0,-1,-8,-5,22262
-1.64225,0.677429,-0.125227,74.25,-72.375,69.9375,0.196289,0.460938,0.228516,17,55,13,7,-2,-3,-3,-2,22279
-1.56739,0.725122,-0.0690926,25.625,-41.9375,20.5625,-0.178223,0.633789,0.375,-9,-19,0,-2,2,-1,1,-1,22296
-1.56739,0.725122,-0.0690926,25.625,-41.9375,20.5625,-0.178223,0.633789,0.375,-5,3,3,-5,4,0,2,-4,22312
-1.54994,0.734737,-0.0510826,-4.6875,-20.375,-9.0625,-0.161133,0.629395,0.393555,0,-5,-5,-13,2,-2,3,2,22330
-1.54956,0.730884,-0.0445007,-29.625,1.25,-42.25,0.0390625,0.737305,0.343262,6,25,16,4,1,-2,-1,4,22347
-1.569,0.713995,-0.050176,-58.875,23.75,-75.8125,0.169434,0.803223,0.275391,-1,-25,-1,-6,1,0,3,1,22364
-1.6085,0.677502,-0.0680316,-84,44.0625,-107.875,0.288574,0.738281,0.292969,18,2,-2,7,-3,-1,-3,1,22380
