roll,pitch,yaw, gyro_x, gyro_y, gyro_z, accel_x, accel_y, accel_z, EMG0, EMG1, EMG2, EMG3, EMG4, EMG5, EMG6, EMG7, time
-1.5087,0.153323,0.0770186,-27.5625,24.375,-42.875,-0.257813,1.39355,0.373047,0,0,0,0,0,0,0,0,426
-1.52833,0.117202,0.0607064,-57.0625,41.375,-108.688,-0.0620117,1.01465,0.393066,0,0,0,0,0,0,0,0,443
-1.55668,0.0634,0.0335254,-80.25,73.875,-152.875,0.25,0.753906,0.330078,0,0,0,0,0,0,0,0,461
-1.59019,-0.00400889,-0.0039318,-93.875,107.813,-180.563,0.725586,0.562988,0.0859375,0,0,0,0,0,0,0,0,478
-1.62969,-0.0882693,-0.0570457,-121.813,160.938,-222.5,0.73877,0.0849609,0.109863,0,0,0,0,0,0,0,0,496
-1.66747,-0.199591,-0.124512,-135.938,216,-303.5,2.00391,-0.527344,-0.519531,0,0,0,0,0,0,0,0,514
-1.69325,-0.32447,-0.204807,-133.625,260.5,-332,4.11279,-0.875488,0.09375,0,0,0,0,0,0,0,0,531
-1.69325,-0.32447,-0.204807,-133.625,260.5,-332,4.11279,-0.875488,0.09375,0,0,0,0,0,0,0,0,547
-1.69382,-0.431868,-0.288188,-90.3125,258.563,-278.313,3.63525,-1.54199,0.214844,0,0,0,0,0,0,0,0,563
-1.65307,-0.517722,-0.363564,18.125,216.438,-225.125,3.34131,-1.04248,-0.203125,0,0,0,0,0,0,0,0,581
-1.65307,-0.517722,-0.363564,18.125,216.438,-225.125,3.34131,-1.04248,-0.203125,0,0,0,0,0,0,0,0,598
-1.60931,-0.662918,-0.485837,-87.8125,140.375,-195.875,2.25342,-0.234375,-0.760742,-7,-1,2,1,16,1,-2,-2,614
-1.60931,-0.662918,-0.485837,-87.8125,140.375,-195.875,2.25342,-0.234375,-0.760742,4,-2,0,-3,-1,-5,2,0,631
-1.65801,-0.741429,-0.534454,-228.875,119.563,-198,1.84131,-0.301758,-0.0551758,18,-1,-1,-1,-2,2,-3,0,648
-1.75169,-0.794657,-0.557347,-306.25,74.4375,-138,1.19287,-0.528809,-0.774414,-6,-4,-4,0,-4,2,3,-5,666
-1.80063,-0.831585,-0.587586,-199.438,83.8125,-90.3125,1.16846,-0.941895,-0.543945,-6,-1,0,1,-2,5,2,-3,684
-1.82116,-0.827575,-0.582727,53.8125,-16.25,3.1875,-0.0141602,-0.444824,-0.626465,-9,-1,-2,5,-7,0,-7,-1,732
-1.82116,-0.827575,-0.582727,53.8125,-16.25,3.1875,-0.0141602,-0.444824,-0.626465,14,0,-4,-4,2,2,14,24,749
-1.83126,-0.803465,-0.550262,67.8125,-38.8125,17.1875,-0.165527,-0.532227,-0.760742,-1,-1,2,0,-5,-2,-7,-8,767
-1.84714,-0.773634,-0.508863,73.6875,-51.625,5.875,-0.319336,-0.820313,-0.957031,-13,-2,2,2,2,4,-16,-2,784
-1.87165,-0.737552,-0.462462,66.875,-60.8125,17.6875,-0.149414,-1.00781,-1.2373,11,-2,-6,-3,0,-1,17,3,802
-1.89529,-0.698493,-0.42848,49,-51.5,71.1875,0.360352,-0.707031,-1.27734,6,0,8,3,-2,-3,4,2,819
-1.89128,-0.653899,-0.420719,34.125,-50.3125,117.813,0.494629,-0.400391,-0.8125,-6,2,11,13,14,5,-29,16,836
-1.87998,-0.607865,-0.421464,32.3125,-39.8125,130.5,0.814453,-0.679199,-0.302734,-7,-3,6,0,-11,3,9,-2,853
-1.87998,-0.607865,-0.421464,32.3125,-39.8125,130.5,0.814453,-0.679199,-0.302734,-11,0,3,-6,-11,-6,-33,18,870
-1.87373,-0.56589,-0.415429,27.5625,-53.9375,121.75,1.57764,-1.12158,-0.356445,4,1,-16,-21,-14,-5,9,-4,887
-1.8572,-0.500678,-0.392772,80.5,-107.938,162.625,2.66504,-0.99707,-0.0717773,3,-1,-3,17,-6,-12,6,-13,904
-1.81307,-0.410291,-0.352071,178,-168.938,222.813,2.90918,-1.23779,0.208984,14,-3,0,-1,-5,-1,18,-6,921
-1.75896,-0.308848,-0.301403,206.063,-195.063,255.25,3.16113,-1.12695,0.254395,16,-4,-9,-21,12,6,34,-13,938
-1.72519,-0.219275,-0.26109,127.125,-153.813,234.063,2.5127,-0.849609,0.258789,7,-5,8,5,13,1,3,-5,956
-1.71462,-0.14032,-0.226572,47.9375,-129.938,209.313,1.87939,-0.36084,0.294434,-4,0,-8,-3,6,3,4,2,973
-1.71462,-0.14032,-0.226572,47.9375,-129.938,209.313,1.87939,-0.36084,0.294434,-1,-2,3,6,-15,-10,6,-2,990
-1.70075,0.0327341,-0.121502,22.375,-130.063,151.125,1.34619,0.0703125,0.120117,2,0,-1,-3,1,1,-4,-1,1041
-1.68009,0.0786938,-0.078465,49.625,-139.563,129.313,0.806152,0.215332,0.160645,-4,0,-6,-3,2,-1,0,3,1058
-1.65415,0.112657,-0.0349895,60.3125,-133.688,93.3125,0.537109,0.399902,0.133301,-1,1,2,1,-6,-1,-6,0,1074
-1.65415,0.112657,-0.0349895,60.3125,-133.688,93.3125,0.537109,0.399902,0.133301,-1,0,7,-1,-7,-5,-1,-3,1091
-1.62654,0.136882,0.00604491,61.1875,-121.188,65.8125,0.358398,0.564453,0.217285,0,-2,-6,0,-10,-6,-1,-3,1109
-1.59621,0.155848,0.0419206,65.5625,-102.875,51.125,0.180664,0.760254,0.405762,6,-1,-4,0,13,0,-3,-1,1126
-1.55941,0.172302,0.0686625,54.6875,-69.375,25.0625,-0.142578,1.00342,0.565918,-8,-1,-1,0,4,5,-17,8,1142
-1.52996,0.175838,0.0837071,26.9375,-34.3125,-22.125,-0.289551,1.18164,0.713379,22,9,-4,-11,-6,3,2,-1,1160
-1.51276,0.155655,0.0831088,-0.375,6,-83.125,-0.20166,1.18018,0.688965,-9,5,4,10,6,-4,-12,7,1177
-1.52416,0.111436,0.0656536,-37,44.125,-130.125,0.0649414,1.00732,0.608398,3,5,-6,-22,-3,0,28,-4,1195
-1.55754,0.0504346,0.0375534,-96.375,75.75,-170.813,0.415039,0.894043,0.411621,-1,1,0,27,5,-5,-25,5,1212
-1.55754,0.0504346,0.0375534,-96.375,75.75,-170.813,0.415039,0.894043,0.411621,-31,1,-6,-27,-9,4,11,0,1229
-1.60192,-0.0346427,-0.00705862,-129.5,129.938,-219.875,1.29688,0.631348,0.231445,31,-3,10,2,-4,-3,9,-12,1246
-1.65977,-0.134817,-0.0685675,-180.75,192.938,-276.375,2.88477,-0.181641,-0.243164,31,-3,10,2,-4,-3,9,-12,1263
-1.70674,-0.238268,-0.148552,-177.313,257.563,-269.75,3.22461,-0.94873,0.00585938,9,13,4,4,4,5,1,6,1281
-1.72521,-0.337581,-0.225454,-115.375,250.813,-250.938,3.97607,-1.04297,-0.0214844,6,-10,-8,0,-14,2,12,-11,1298
-1.67287,-0.551292,-0.408894,-41.5625,129,-158.813,2.10693,-0.412109,-0.393066,-3,-2,-1,1,8,3,4,-5,1356
-1.67287,-0.551292,-0.408894,-41.5625,129,-158.813,2.10693,-0.412109,-0.393066,9,0,3,-9,7,-1,3,7,1373
-1.71001,-0.614255,-0.440869,-150.563,98.8125,-148.313,1.63135,-0.0874023,-0.40918,4,-1,-2,-4,-10,7,9,-2,1390
-1.77679,-0.662133,-0.466035,-228.313,83.4375,-112.688,1.24902,-0.388184,-0.54248,-2,-1,0,-3,-11,2,-6,-10,1407
-1.82692,-0.692885,-0.492633,-186.313,81.125,-69.375,0.918945,-0.785156,-0.576172,14,-2,-2,2,-2,-2,-1,0,1424
-1.85123,-0.703527,-0.511079,-85.6875,68.75,-39.875,0.433105,-0.939453,-0.62793,-6,-2,-3,-3,0,0,-4,-2,1442
-1.85819,-0.692647,-0.509993,4.625,20,-9.375,0.0136719,-0.886719,-0.695801,-9,-1,-1,3,11,-2,1,-8,1458
-1.85696,-0.66927,-0.4921,63.8125,-21.375,11.5625,-0.226563,-0.686035,-0.735352,-4,0,-2,-3,0,0,-8,17,1475
-1.8618,-0.642578,-0.461407,75.3125,-48.5,14.6875,-0.288086,-0.581055,-0.838379,2,1,-5,-6,5,0,-3,-3,1492
-1.87871,-0.608826,-0.421856,63.25,-68.0625,21.125,-0.278809,-0.751953,-1.06348,-10,-2,-1,1,-1,-2,-7,0,1509
-1.87871,-0.608826,-0.421856,63.25,-68.0625,21.125,-0.278809,-0.751953,-1.06348,9,-3,-4,-4,-3,2,25,-1,1526
-1.89252,-0.56812,-0.390864,66.875,-53.3125,48.0625,-0.141602,-0.878418,-1.30957,-1,0,7,1,4,-1,-9,-8,1543
-1.90169,-0.52479,-0.368786,62.6875,-51.4375,89.125,0.155762,-0.591309,-1.1875,4,0,-4,-14,2,-2,17,-7,1560
-1.88523,-0.481366,-0.360023,67.625,-56.25,112.813,0.388672,-0.489258,-0.722168,1,-1,1,4,-7,0,-2,-2,1577
-1.86462,-0.440804,-0.357353,64.875,-41.5625,114.313,0.757813,-0.82666,-0.4375,24,-4,-8,-9,-6,-1,25,-10,1594
-1.85224,-0.40241,-0.342046,53.9375,-75.0625,113.25,1.80176,-1.21484,-0.397461,-12,-2,-25,-11,-7,-6,1,-6,1611
-1.6883,-0.128112,-0.199547,199.188,-198.938,256.063,3.40723,-1.03271,0.260254,-31,-7,-3,7,2,-1,-29,14,1682
-1.66529,-0.043243,-0.157074,76.75,-146.5,229.063,2.51367,-0.328613,0.429688,-3,2,3,9,11,-5,-7,1,1699
-1.65511,0.0282735,-0.117381,29.6875,-131.625,194.063,1.81348,-0.397461,0.282227,-13,-8,-2,2,-18,-4,5,1,1716
-1.65564,0.0900798,-0.0805546,-7.6875,-120.188,167.5,1.69238,-0.284668,0.0986328,-1,0,3,4,-8,-12,11,-3,1734
-1.65255,0.138342,-0.0427359,-6.0625,-120.438,152.438,1.38623,-0.019043,0.11084,-5,-1,1,-5,11,0,-8,0,1751
-1.65255,0.138342,-0.0427359,-6.0625,-120.438,152.438,1.38623,-0.019043,0.11084,-3,-2,1,-5,-8,-1,-6,-2,1768
-1.63504,0.18572,-0.00164667,28.1875,-126.438,142.25,0.942871,0.133301,0.176758,-5,0,0,-4,-8,5,-1,-2,1785
-1.6094,0.223982,0.0385696,48,-118.563,113.25,0.657715,0.350586,0.111816,-1,-2,-2,-1,-2,5,1,3,1802
-1.57862,0.254254,0.0763053,60.5,-106.563,88.4375,0.385254,0.498535,0.143066,-6,-2,0,-2,1,-3,-3,1,1818
-1.53746,0.275835,0.10743,72.5,-79.4375,58,0.142578,0.741699,0.313477,1,-6,0,0,15,6,3,-4,1836
-1.49488,0.282956,0.128496,68.8125,-47.375,7.5,0.0625,1.07324,0.485352,-3,-3,-3,-4,-2,-3,-4,0,1853
-1.46117,0.277569,0.138839,43.6875,-18.875,-34,0.0224609,1.22266,0.568848,0,-2,-3,-5,1,3,-1,3,1870
-1.46117,0.277569,0.138839,43.6875,-18.875,-34,0.0224609,1.22266,0.568848,-1,9,9,2,-4,1,4,-6,1886
-1.44092,0.260507,0.139953,5.125,3.0625,-69.3125,-0.0214844,1.13867,0.660645,0,0,1,8,4,0,10,-5,1903
-1.45046,0.222704,0.124123,-28.6875,33.0625,-116.063,0.0527344,1.06934,0.620605,2,-19,-14,-2,-8,-6,12,-14,1921
-1.47489,0.165991,0.0949909,-63.1875,65.875,-168.063,0.307129,1.01904,0.460449,-40,-9,-7,4,9,-7,-54,24,1937
-1.66302,-0.104474,-0.0851932,-214.875,238.5,-278.25,3.20898,-0.753418,-0.00585938,-8,-8,-7,-4,5,-5,-7,-8,2002
-1.70344,-0.204091,-0.159474,-148.625,241.688,-260.375,3.6792,-0.993164,0.0605469,1,4,-4,-1,-20,-3,6,-15,2019
-1.70631,-0.292926,-0.234526,-61.0625,240.75,-224.375,3.64355,-0.902832,-0.311523,9,0,5,3,-5,-3,-15,16,2036
-1.69868,-0.369183,-0.301922,-40.9375,210,-192.813,3.02051,-0.703613,-0.211426,-15,-4,-3,-3,10,4,-11,-10,2054
-1.69868,-0.369183,-0.301922,-40.9375,210,-192.813,3.02051,-0.703613,-0.211426,-10,1,2,-4,-5,3,-11,8,2072
-1.71615,-0.493347,-0.403823,-135,139,-154.25,1.74756,-0.0620117,-0.274414,-1,-2,-2,-3,11,7,6,8,2089
-1.71615,-0.493347,-0.403823,-135,139,-154.25,1.74756,-0.0620117,-0.274414,0,1,3,-6,0,-2,3,-3,2106
-1.77721,-0.550645,-0.440121,-222.063,117.75,-131,1.19434,-0.241699,-0.367188,7,-1,1,-2,-9,-1,-4,13,2123
-1.83447,-0.589619,-0.474487,-212.813,108.375,-84.0625,0.793945,-0.57666,-0.466797,-4,-1,-3,1,-10,-10,-6,1,2140
-1.86797,-0.615984,-0.501207,-134.688,85,-55.5,0.535645,-0.73291,-0.570801,-3,-2,-2,-5,-10,1,2,3,2157
-1.88913,-0.627411,-0.511263,-51.5625,55.3125,-36,0.290039,-0.661621,-0.695801,1,-1,4,3,0,5,0,0,2175
-1.89775,-0.624628,-0.504695,19.375,14.4375,-15.5,0.0756836,-0.543945,-0.804199,-7,-2,-9,-7,2,-1,-3,-9,2192
-1.89775,-0.624628,-0.504695,19.375,14.4375,-15.5,0.0756836,-0.543945,-0.804199,-3,-1,-4,1,1,2,8,1,2208
-1.90831,-0.610323,-0.480223,51.5,-26.3125,-9.375,-0.180176,-0.513672,-0.939453,3,-3,-1,-2,0,-3,11,2,2225
-1.92956,-0.584891,-0.439787,56.375,-62.0625,-6.875,-0.391113,-0.577637,-1.15967,2,0,-3,-8,-2,1,2,-5,2242
-1.95644,-0.549978,-0.395551,47.5625,-78.0625,5.4375,-0.334961,-0.853027,-1.35693,-4,-3,0,-2,5,5,-13,7,2259
-1.9884,-0.486018,-0.337442,44.125,-70.4375,63.1875,0.55957,-0.69043,-1.10693,3,-4,-17,-18,-6,-3,17,-4,2302
-1.98495,-0.460944,-0.322165,46.0625,-71.6875,86.25,0.963379,-0.629395,-0.563477,-27,-6,-7,11,12,-2,-16,24,2319
-1.9744,-0.446087,-0.306517,50.9375,-82.9375,91.3125,1.65332,-0.955078,-0.434082,-30,-5,-12,2,-29,-18,-14,2,2336
-1.96388,-0.385273,-0.275697,65.75,-142.188,129.375,2.70361,-1.07178,-0.143066,4,5,6,24,-6,-4,-3,-4,2352
-1.96388,-0.385273,-0.275697,65.75,-142.188,129.375,2.70361,-1.07178,-0.143066,-9,-5,-21,1,-30,-20,-1,-7,2369
-1.92276,-0.287159,-0.233169,158,-209.688,220.125,3.0835,-1.35547,0.166504,11,0,10,-2,21,8,2,-13,2386
-1.84845,-0.177216,-0.182008,246.813,-233.875,255.688,3.32861,-1.28418,0.279785,11,8,10,5,21,2,-11,5,2403
-1.80024,-0.0853313,-0.150352,150.313,-153.438,232.5,2.92871,-0.569336,0.191406,-5,-4,-3,-1,0,2,11,-4,2421
-1.7778,-0.00810731,-0.12977,66.75,-105.375,203.313,2.28125,-0.151855,0.182617,-5,0,0,1,-2,-4,-8,1,2438
-1.77441,0.0604716,-0.109003,8.4375,-98.375,180.438,2.18994,-0.191406,0.0712891,-4,-4,-4,-1,-15,-4,-5,-3,2454
-1.76642,0.128219,-0.0841392,16.125,-108.188,176.125,1.73975,-0.097168,0.11377,4,-3,-2,-7,-13,0,5,0,2472
-1.76642,0.128219,-0.0841392,16.125,-108.188,176.125,1.73975,-0.097168,0.11377,-4,-1,-2,-2,7,5,-9,3,2489
-1.74735,0.187835,-0.0524442,38.0625,-122.938,171.063,1.20947,0.0478516,0.129883,-7,-4,-4,-5,-5,-2,-5,-3,2506
-1.71892,0.240938,-0.0190915,60.1875,-119.25,149.625,0.969727,0.365234,0.0820313,-1,1,1,-1,-1,-1,3,-4,2523
-1.68236,0.286927,0.0162807,77.3125,-115.188,127.438,0.775879,0.626953,0.122559,2,-3,-6,1,-7,-2,-3,2,2540
-1.6413,0.327543,0.0503228,86.5625,-102.875,110.313,0.466797,0.817871,0.135742,5,-1,-1,2,1,3,-5,-4,2558
-1.54769,0.38321,0.124312,21.4375,-33.0625,-19,-0.165527,1.23682,0.758301,-9,-3,-14,-8,2,0,8,5,2614
-1.52714,0.372151,0.131735,1.1875,-2.3125,-74.1875,-0.231934,1.17578,0.755371,-13,-6,6,8,0,-1,-13,-1,2631
-1.52714,0.372151,0.131735,1.1875,-2.3125,-74.1875,-0.231934,1.17578,0.755371,-13,-6,6,8,0,-1,-13,-1,2648
-1.54453,0.327593,0.115959,-45.0625,41.375,-135.688,-0.0405273,1.0625,0.622559,0,2,-1,19,13,-3,0,-2,2665
-1.58361,0.264196,0.0837428,-93.9375,90,-181.188,0.32666,0.956055,0.555176,-18,-6,-3,9,9,-9,-34,5,2681
-1.63895,0.182277,0.0361828,-132.125,142.625,-212,1.12793,0.599609,0.308105,14,5,2,9,22,6,11,-12,2697
-1.70362,0.0779416,-0.021203,-164.125,192.375,-281.438,3.57617,0.140625,-0.279297,-9,-4,1,-29,-19,-14,-7,-5,2714
-1.70362,0.0779416,-0.021203,-164.125,192.375,-281.438,3.57617,0.140625,-0.279297,-5,10,7,-18,6,-2,-50,29,2731
-1.78135,-0.149035,-0.16541,-80.75,251.125,-273.063,3.63672,-0.837402,0.0195313,-13,-7,-11,9,-28,-4,16,-10,2748
-1.78135,-0.149035,-0.16541,-80.75,251.125,-273.063,3.63672,-0.837402,0.0195313,19,0,-2,20,10,-1,1,-1,2765
-1.78788,-0.252035,-0.230835,-56.25,242.438,-249.625,3.53516,-0.824707,-0.391113,15,-3,1,-4,8,6,2,4,2782
-1.78038,-0.34082,-0.287738,-26.4375,206.688,-215.813,2.99951,-0.546387,-0.282227,-17,-1,4,8,6,4,-11,2,2799
-1.78365,-0.416422,-0.335842,-60.0625,170.563,-184.813,2.31299,-0.342773,-0.354004,-2,-3,-1,-2,-2,-6,-2,-2,2817
-1.82376,-0.484294,-0.372937,-161.438,138.125,-167.375,1.72168,-0.0214844,-0.393066,2,-2,1,-3,-10,-1,1,-2,2834
-1.82376,-0.484294,-0.372937,-161.438,138.125,-167.375,1.72168,-0.0214844,-0.393066,-4,-1,1,-1,-9,1,-3,13,2851
-1.89365,-0.538329,-0.39834,-231.063,103.875,-117.5,1.18799,-0.404297,-0.477539,-1,-1,-2,-4,-8,-3,-6,-9,2868
-2.00416,-0.586633,-0.430837,-36.6875,13.25,-17.3125,0.0463867,-0.733398,-0.838379,5,0,-3,0,-4,-6,1,-9,2921
-2.01246,-0.564945,-0.416707,30.5625,-21,12.75,-0.0717773,-0.681641,-0.916504,-13,-2,1,10,10,0,-5,-1,2938
-2.00729,-0.533196,-0.397366,80,-38.625,23.75,-0.272949,-0.685547,-0.98291,-7,-2,-3,-3,-6,-2,-5,6,2955
-2.00726,-0.493098,-0.370946,79.625,-55.9375,20.875,-0.5,-0.858398,-1.15869,4,-2,-3,-2,-3,5,1,11,2972
-2.00726,-0.493098,-0.370946,79.625,-55.9375,20.875,-0.5,-0.858398,-1.15869,-4,3,10,8,10,-2,-19,-2,2990
-2.01785,-0.449088,-0.345233,46.875,-71,48.0625,-0.154297,-0.969727,-1.21631,2,0,7,9,-4,-4,12,-9,3007
-2.02938,-0.41308,-0.329948,26.8125,-64.3125,84.8125,0.45752,-0.624023,-1.03174,-9,-4,-11,-10,7,1,11,5,3023
-2.01787,-0.370746,-0.329507,37.8125,-54.75,114,0.594238,-0.51709,-0.546387,25,7,0,1,-11,-4,18,-12,3041
-2.0075,-0.322824,-0.32791,30.875,-66.6875,130.313,0.888184,-0.891602,-0.405273,-3,-1,5,1,-18,-4,11,1,3058
-1.99832,-0.263826,-0.313526,38.125,-106.375,137,2.19092,-1.05029,-0.211914,-15,7,-10,-16,-6,3,-31,18,3075
-1.94868,-0.172727,-0.28736,158.813,-170.188,211.625,2.8833,-0.944824,0.0136719,1,-1,2,-8,-7,-3,14,-16,3092
-1.94868,-0.172727,-0.28736,158.813,-170.188,211.625,2.8833,-0.944824,0.0136719,19,1,6,9,22,3,-4,-6,3109
-1.8724,-0.0675375,-0.246386,232.5,-210.5,245.688,3.31982,-1.1543,0.143555,-13,-3,-26,-14,27,0,-21,-6,3126
-1.81461,0.0309028,-0.20879,167.625,-179.938,242.938,3.37451,-0.70459,0.172363,9,-4,13,8,21,2,-9,1,3144
-1.7844,0.116788,-0.17777,79.9375,-142.5,219.438,2.48193,-0.194336,0.381836,10,2,4,7,-9,0,-1,7,3161
-1.76931,0.188004,-0.148684,30.4375,-122.313,182.813,2.12695,-0.313965,0.152344,12,-1,4,8,12,5,9,-5,3178
-1.72284,0.35224,-0.0452105,48.125,-131.875,137.313,0.868652,0.115234,0.15918,-6,-1,-6,-4,-9,-3,-6,4,3234
-1.72284,0.35224,-0.0452105,48.125,-131.875,137.313,0.868652,0.115234,0.15918,2,0,-1,-2,-5,0,-3,-2,3251
-1.68587,0.391507,-0.00715641,64.75,-116.25,104.75,0.57959,0.352539,0.118652,4,1,14,6,-3,3,2,-1,3269
-1.65024,0.416547,0.0279004,55.3125,-96.75,73.5625,0.455078,0.603027,0.166016,7,-4,-11,-3,-2,-2,-1,1,3286
-1.61398,0.438643,0.0600062,49.0625,-79.5625,54.1875,0.281738,0.733887,0.304688,20,6,-5,-6,6,-4,2,-3,3303
-1.57534,0.457714,0.0887622,43,-59.6875,29.125,-0.00195313,0.782715,0.532227,-4,-6,-5,-2,-16,-2,2,-11,3320
-1.54443,0.467704,0.108991,19.5625,-30.375,-7.9375,-0.138184,0.943359,0.692871,-15,-3,-14,-14,5,1,3,3,3338
-1.52337,0.465161,0.116262,-2.4375,6.25,-49.375,-0.119141,1.1748,0.839355,-4,-14,-9,-4,2,4,12,-3,3354
-1.52337,0.465161,0.116262,-2.4375,6.25,-49.375,-0.119141,1.1748,0.839355,-16,3,7,23,5,-16,-37,4,3370
-1.51858,0.449314,0.106751,-26.6875,45.875,-86.8125,-0.0771484,1.23633,0.800293,-6,-3,-12,-24,-16,1,10,3,3388
-1.55633,0.401405,0.0702563,-73.9375,94.6875,-144.5,0.178711,1.04639,0.558105,-28,4,16,28,11,2,-37,3,3406
-1.61619,0.329422,0.0189861,-124.063,142.5,-201,0.515137,0.945313,0.373535,15,1,-10,-41,-10,0,52,-15,3424
-1.68328,0.236188,-0.0386016,-146.063,179.063,-253.938,1.85449,0.554199,-0.102539,-9,-7,17,31,22,14,1,0,3441
-1.75302,0.122496,-0.109111,-164.063,244.938,-293.25,3.60938,-0.388672,-0.190918,24,0,-5,-36,-40,-22,46,-26,3458
-1.80179,0.0143298,-0.173757,-127,244.938,-265.813,3.61035,-1.00293,-0.0136719,-4,-2,-4,5,-22,-3,-4,-13,3476
-1.81497,-0.0809711,-0.228051,-42.875,215.625,-229.188,3.81592,-1.15381,-0.416504,11,-1,5,14,1,3,-3,1,3493
-1.86701,-0.270563,-0.32599,-145.375,94.0625,-127.563,1.81348,-0.0634766,-0.216309,8,2,-1,-1,10,-4,6,-1,3557
-1.94119,-0.318487,-0.337714,-218.188,69.8125,-99.375,1.46191,-0.473145,-0.456543,2,-2,-1,-9,-11,5,5,6,3575
-1.94119,-0.318487,-0.337714,-218.188,69.8125,-99.375,1.46191,-0.473145,-0.456543,7,-2,-2,3,-14,7,10,2,3592
-1.99921,-0.35237,-0.351627,-178.063,69.5,-67.5625,0.829102,-0.810059,-0.438477,0,-3,-4,9,-13,-2,-13,-18,3609
-2.03349,-0.3751,-0.355118,-90.4375,33.75,-38.5625,0.56543,-0.664063,-0.527832,-6,-1,-2,-2,2,-3,-7,6,3625
-2.05341,-0.37766,-0.351933,-30,6.0625,-10.3125,0.238281,-0.529297,-0.684082,-8,-2,-5,-7,8,0,3,2,3643
-2.06503,-0.357027,-0.343295,-0.875,-27.625,21.5,-0.0693359,-0.637207,-0.75,-5,-1,-2,-11,-5,5,-4,-7,3660
-2.07053,-0.322675,-0.331494,22.0625,-47.8125,41.125,-0.237305,-0.748047,-0.864746,-11,0,-4,-4,-3,-5,4,-17,3678
-2.06697,-0.27982,-0.316261,56.6875,-60.75,46.3125,-0.449219,-0.802734,-0.98877,-8,-1,4,5,3,0,-27,5,3695
-2.06697,-0.27982,-0.316261,56.6875,-60.75,46.3125,-0.449219,-0.802734,-0.98877,-6,-1,-5,-8,-4,-5,6,-7,3711
-2.06149,-0.240288,-0.298201,71.625,-67.6875,44,-0.317871,-0.812012,-1.13867,3,-2,-1,-9,-2,0,11,-1,3727
-2.06087,-0.210839,-0.284806,54.9375,-65.625,65.625,0.290527,-0.639648,-1.07959,8,-3,4,2,4,2,21,-15,3745
-2.0464,-0.168794,-0.281999,49.375,-64.625,109.063,0.486328,-0.518555,-0.684082,19,-1,-2,-14,-5,1,38,-10,3761
-2.03029,-0.117212,-0.282794,47.25,-68.375,140.375,0.595703,-0.76416,-0.467773,5,2,4,18,2,2,-13,15,3778
-2.00742,-0.0711022,-0.276589,63.9375,-84.125,133.75,1.52002,-1.08838,-0.299805,12,0,-7,3,12,5,-16,0,3796
-2.00742,-0.0711022,-0.276589,63.9375,-84.125,133.75,1.52002,-1.08838,-0.299805,12,5,11,13,-12,-10,17,-10,3813
-1.76189,0.244189,-0.182235,119.25,-126,195.125,2.26855,-0.51709,0.300781,-25,-10,0,3,5,5,-6,9,3879
-1.76189,0.244189,-0.182235,119.25,-126,195.125,2.26855,-0.51709,0.300781,0,9,0,-1,-3,-13,13,-14,3895
-1.73949,0.30653,-0.152142,40.625,-113.625,160.938,1.83887,-0.264648,0.118164,0,9,0,-1,-3,-13,13,-14,3912
-1.73231,0.36023,-0.122276,-7.8125,-105.25,138.563,1.81299,-0.3125,0.123047,-8,-8,0,-6,-2,0,-8,-3,3929
-1.73231,0.36023,-0.122276,-7.8125,-105.25,138.563,1.81299,-0.3125,0.123047,-8,-8,0,-6,-2,0,-8,-3,3946
-1.67507,0.458493,-0.0519568,61.75,-115.563,136,1.15381,0.160645,0.11377,7,2,1,-4,-14,-1,4,-2,3963
-1.63388,0.498484,-0.00982247,61.6875,-116.25,111.25,0.592285,0.364746,0.0717773,-5,2,2,-2,-5,0,-2,6,3981
-1.59157,0.524635,0.0351146,57.3125,-114.875,71.875,0.400879,0.472656,0.0629883,4,4,-3,-3,-9,3,0,0,3998
-1.54702,0.540322,0.080153,58.5,-109.438,42.5,0.161621,0.556641,0.22998,-7,-3,4,-4,1,2,-5,0,4015
-1.54702,0.540322,0.080153,58.5,-109.438,42.5,0.161621,0.556641,0.22998,-1,-4,-3,-3,-41,-7,-7,1,4031
-1.49284,0.555873,0.123247,66.5,-89.4375,21.125,-0.0639648,0.694824,0.371582,2,-4,-4,-2,-6,3,10,-11,4048
-1.44795,0.564744,0.151983,45.375,-46.5625,-14.4375,-0.168457,1.02051,0.577637,-17,-3,-5,-1,20,7,-4,1,4065
-1.41934,0.565443,0.163015,15.9375,-2.75,-52.125,-0.212891,1.2666,0.687012,-10,-1,0,-11,5,8,5,10,4082
-1.43096,0.532971,0.146695,-22.1875,32.1875,-109.188,-0.0317383,1.27979,0.723145,7,-3,-12,-15,-2,-7,16,-10,4099
-1.46926,0.475311,0.106532,-66.125,86.25,-179.938,0.317871,1.09912,0.678223,-8,0,1,-9,-1,-3,9,2,4116
-1.46926,0.475311,0.106532,-66.125,86.25,-179.938,0.317871,1.09912,0.678223,-12,-6,4,-24,-20,-11,19,1,4133
-1.7045,0.192009,-0.0981773,-226.563,253.5,-286.125,3.53906,-0.248047,-0.03125,-1,7,-4,10,-15,-11,-17,-11,4186
-1.78913,0.0896305,-0.168191,-214.438,247.5,-254.25,3.86621,-1.12549,0.278809,28,-1,-15,13,-26,3,3,-4,4202
-1.82053,0.00250902,-0.223129,-82.875,210.875,-206.313,3.33154,-1.18506,-0.106934,32,-6,22,9,-3,12,14,-10,4219
-1.83636,-0.0702274,-0.270794,-50.1875,185.25,-166.875,2.78467,-0.5,-0.297852,-7,1,9,-9,-3,0,5,-1,4235
-1.83636,-0.0702274,-0.270794,-50.1875,185.25,-166.875,2.78467,-0.5,-0.297852,-7,-2,-10,-13,-7,-4,-4,3,4252
-1.86151,-0.134995,-0.308127,-83,153.5,-149.5,2.43311,-0.106445,-0.454102,5,-1,-3,5,-2,-4,-4,-4,4270
-1.92177,-0.191299,-0.33452,-185,121.625,-129.563,1.85938,-0.0200195,-0.457031,5,0,0,-8,0,2,-1,1,4287
-2.01892,-0.241652,-0.349117,-281.125,87.5,-98.375,1.27344,-0.18457,-0.498047,2,-1,-3,-5,-4,1,10,-3,4304
-2.09543,-0.274738,-0.365045,-228,78.75,-52.8125,0.927734,-0.645996,-0.582031,3,-2,0,0,-1,0,-2,-5,4321
-2.14119,-0.297497,-0.37834,-140.438,63.5625,-33.4375,0.546875,-0.817383,-0.638672,-5,-2,-1,-2,0,1,-8,-2,4338
-2.14119,-0.297497,-0.37834,-140.438,63.5625,-33.4375,0.546875,-0.817383,-0.638672,-2,1,-1,4,18,-5,-8,-18,4355
-2.16454,-0.306262,-0.380186,-56.125,20.375,-14.9375,0.316406,-0.674805,-0.671387,-3,0,-2,2,0,2,0,2,4372
-2.17052,-0.296659,-0.374248,7.6875,-17.75,8,0.0751953,-0.479492,-0.688477,-7,-3,-1,-5,7,3,1,-33,4390
-2.16,-0.271127,-0.362456,67.9375,-44.8125,22.8125,-0.180664,-0.534668,-0.855469,-12,-1,-3,-11,-4,-5,-6,-12,4408
-2.14442,-0.236342,-0.342632,94.8125,-65.5,16.9375,-0.45752,-0.664063,-1.05566,-5,-3,-3,-2,4,0,-6,12,4424
-2.13439,-0.195294,-0.317133,89.6875,-86.1875,20.4375,-0.492676,-0.895508,-1.32471,-1,-1,-2,-1,-2,-6,-3,3,4442
-2.0874,-0.0757989,-0.297461,68.25,-70.1875,121.375,0.78418,-0.820801,-0.572266,-25,0,-2,-13,-10,5,-24,19,4496
-2.07031,-0.0252847,-0.289412,49.75,-90.75,115.375,1.91064,-1.14502,-0.369629,-14,-6,-4,-20,2,3,3,-1,4513
-2.07031,-0.0252847,-0.289412,49.75,-90.75,115.375,1.91064,-1.14502,-0.369629,10,3,9,-25,-5,3,4,4,4531
-2.01945,0.0524711,-0.278903,145.813,-128.563,184.313,2.82715,-0.911133,0.015625,18,-2,8,8,-1,-3,-6,1,4547
-1.92271,0.155235,-0.247208,267.75,-198.5,236.625,3.31201,-1.35498,0.311035,-2,0,-4,4,2,-2,-5,6,4564
-1.84298,0.250423,-0.212141,208.313,-177.438,229.438,3.37988,-1.08008,0.228027,5,0,-4,1,-1,-6,1,-7,4580
-1.80608,0.334394,-0.1887,86,-123,216.875,2.40332,-0.216309,0.439453,-16,-8,-5,-5,-3,-2,9,0,4598
-1.80608,0.334394,-0.1887,86,-123,216.875,2.40332,-0.216309,0.439453,1,1,5,-3,-13,-4,-7,0,4615
-1.78763,0.406199,-0.16648,30.125,-103.938,187.188,1.95508,-0.463379,0.234863,-8,0,-4,3,6,4,8,-3,4632
-1.77795,0.468486,-0.144085,0.3125,-94.4375,161.938,1.80469,-0.410156,0.106934,-6,-1,-1,3,-1,-6,-1,-5,4650
-1.76038,0.52794,-0.119452,16.6875,-94.25,155,1.61084,-0.0341797,0.125488,6,0,0,-9,0,-2,0,-2,4667
-1.72589,0.580824,-0.0879867,49,-103.125,151.313,1.1792,0.147949,0.149414,-1,-3,1,-3,10,-3,-9,0,4684
-1.68222,0.628995,-0.0517518,65.1875,-103.438,133.063,0.734863,0.269043,0.0766602,21,1,-2,-1,3,-1,0,-1,4702
-1.63767,0.667099,-0.0116749,57.875,-100.688,101.188,0.365723,0.401855,0.0644531,-14,-2,2,2,-7,-6,2,1,4719
-1.59075,0.695961,0.0324484,50.0625,-97,65.8125,0.268555,0.603516,0.109863,-1,-3,1,-1,-6,-3,-5,-7,4736
-1.59075,0.695961,0.0324484,50.0625,-97,65.8125,0.268555,0.603516,0.109863,2,0,-1,-1,0,-4,1,-2,4752
-1.43115,0.750556,0.152552,15.5625,-33.25,-42.1875,-0.29541,1.29248,0.663574,-8,0,4,2,-4,-2,1,3,4809
-1.43942,0.718588,0.142584,-4.375,8.625,-93.5,-0.166504,1.38379,0.760742,25,23,16,0,5,3,-1,2,4827
-1.46185,0.675004,0.118925,-31.4375,44.375,-142.25,0.0688477,1.18945,0.688477,-5,1,2,-6,5,-3,-3,-2,4844
-1.51246,0.613696,0.0795338,-86.6875,81.3125,-188.5,0.281738,1.01807,0.589844,-15,-2,-6,8,0,0,-20,9,4860
-1.51246,0.613696,0.0795338,-86.6875,81.3125,-188.5,0.281738,1.01807,0.589844,-14,-3,-8,-9,-9,-3,7,-6,4877
-1.72714,0.431851,-0.0371006,-279.125,181.125,-274.5,4.02344,0.230469,-0.38916,-10,-7,-15,-33,4,0,28,-12,4893
-1.72714,0.431851,-0.0371006,-279.125,181.125,-274.5,4.02344,0.230469,-0.38916,-18,3,-9,-13,39,-14,-57,22,4910
-1.85434,0.314582,-0.114465,-283.438,275.5,-283.5,3.79443,-1.01172,0.0175781,-36,-2,0,35,8,-15,-65,23,4928
-1.91417,0.200375,-0.185801,-119.5,289.5,-250.625,4.12891,-1.39502,0.0253906,7,-7,10,9,6,11,48,4,4946
-1.93602,0.103629,-0.252152,-33.875,272.5,-194.875,3.59375,-1.31494,-0.510254,10,1,18,12,-1,2,21,-19,4963
-1.92642,0.0288004,-0.295455,35.4375,191.625,-156.938,2.84766,-0.95752,-0.322754,-6,0,-9,-6,-7,8,-6,-3,4980
-1.92642,0.0288004,-0.295455,35.4375,191.625,-156.938,2.84766,-0.95752,-0.322754,-14,1,-14,-11,-32,-7,-8,-3,4997
-1.99414,-0.0797433,-0.3331,-179.375,87.625,-122.625,1.5376,0.195313,-0.374023,16,2,2,-11,10,0,11,1,5013
-1.99414,-0.0797433,-0.3331,-179.375,87.625,-122.625,1.5376,0.195313,-0.374023,-10,0,-2,2,12,-1,-18,1,5031
-2.09492,-0.126646,-0.339087,-286.438,69.125,-96.625,1.06836,-0.410156,-0.519043,3,-1,-5,-3,4,-1,-3,5,5048
-2.09492,-0.126646,-0.339087,-286.438,69.125,-96.625,1.06836,-0.410156,-0.519043,-1,-4,-1,3,-3,-1,6,-1,5064
-2.24255,-0.178707,-0.370392,31.875,-3.0625,16.4375,-0.155762,-0.637207,-0.709473,-2,-1,-1,0,4,-1,13,16,5132
-2.22276,-0.14976,-0.364936,84.6875,-38.5625,31.6875,-0.336426,-0.587891,-0.908691,2,-2,0,-3,-2,-2,-5,15,5150
-2.1848,-0.123271,-0.352228,123.438,-68.375,33.875,-0.327148,-0.705566,-1.16455,-3,0,2,-7,0,0,12,-32,5167
-2.1419,-0.0938382,-0.339006,141.313,-71.8125,42.0625,-0.405273,-0.775391,-1.48535,-13,-3,-3,6,-1,-2,-24,-15,5184
-2.11241,-0.0530091,-0.326737,104.938,-88.5625,78.375,-0.158203,-0.563477,-1.55518,24,0,-4,-8,-11,2,28,-2,5201
-2.09358,-0.00177944,-0.312459,70.1875,-110.375,107.688,0.106445,-0.353027,-1.19922,6,-4,-8,-25,-11,-3,28,-1,5218
-2.09358,-0.00177944,-0.312459,70.1875,-110.375,107.688,0.106445,-0.353027,-1.19922,-1,-3,-5,-44,-23,3,27,-24,5235
-2.08652,0.0531873,-0.299049,22.9375,-116.063,125.563,0.478027,-0.705078,-0.649414,2,-7,-27,-6,-5,-5,8,-19,5252
-2.08548,0.105831,-0.277786,-2.125,-127.5,101.188,2.04492,-1.25098,-0.606934,-37,-2,-12,17,9,-17,-44,2,5270
-2.0283,0.184966,-0.246328,150.688,-184.813,158.875,3.05957,-1.20752,-0.0117188,-4,-2,-11,-9,-5,1,7,-13,5288
-1.90498,0.285452,-0.19394,318.438,-246.25,209.75,3.64355,-1.30029,0.253906,13,-1,-4,-10,-33,-3,43,4,5304
-1.78628,0.376985,-0.150185,299.5,-185.688,220.688,3.1665,-1.29932,0.181152,14,6,-1,-13,-18,3,9,8,5321
-1.74325,0.456553,-0.122266,91.125,-115.813,209.625,2.48145,-0.169434,0.351563,-1,0,1,21,-9,-4,18,-20,5338
-1.74325,0.456553,-0.122266,91.125,-115.813,209.625,2.48145,-0.169434,0.351563,-1,1,5,-5,20,6,6,-4,5355
-1.71358,0.5253,-0.0942584,47.125,-101.063,183.438,2.23682,-0.580566,0.204102,-10,-1,2,-3,11,0,-3,-10,5372
-1.69149,0.581951,-0.0649629,19,-92.25,151.5,2.12109,-0.379395,-0.0131836,-6,2,2,3,-11,-5,-6,7,5389
-1.55198,0.708546,0.055769,80.5625,-102.375,101.813,0.69873,0.381836,-0.00195313,2,-2,0,-1,-12,-5,-4,-5,5454
-1.49713,0.73653,0.102097,65.8125,-92.6875,76.4375,0.36377,0.583008,0.0332031,-1,1,3,-1,7,3,5,3,5472
-1.44335,0.756944,0.148317,53.6875,-83.5625,45.1875,0.173828,0.666016,0.127441,-4,-1,-1,0,7,4,0,1,5489
-1.39079,0.767794,0.193768,41.875,-75.375,13.6875,0.114746,0.780273,0.258301,-24,-5,1,2,-8,-1,-5,1,5506
-1.34204,0.772081,0.234563,28.3125,-59.625,-17.875,-0.00244141,0.984863,0.418945,1,10,5,0,0,8,3,0,5523
-1.29905,0.769326,0.267001,11.875,-36.375,-54.9375,-0.198242,1.15332,0.679688,11,-4,-7,2,-10,-5,1,-9,5540
-1.30795,0.733283,0.255124,-2,-3.1875,-106.563,-0.209473,1.24561,0.831055,-17,-3,-5,-4,2,-2,-4,4,5558
-1.30795,0.733283,0.255124,-2,-3.1875,-106.563,-0.209473,1.24561,0.831055,0,-3,3,-2,4,0,6,4,5575
-1.3331,0.681874,0.226359,-30,30.4375,-171.438,0.0244141,1.26807,0.567871,-2,-20,-8,-19,-6,-4,12,-15,5591
-1.3907,0.617502,0.181257,-94.875,67,-210.688,0.34375,1.38965,0.349121,43,36,19,-13,7,6,22,-3,5609
-1.48301,0.536087,0.118219,-166.438,119.125,-251.563,1.15527,1.06934,0.0551758,18,-8,-13,-12,-3,0,20,-5,5626
-1.60362,0.440647,0.0546806,-259.875,153.438,-278.563,3.97803,-0.13916,-0.626953,-8,3,-4,-17,32,-4,-29,5,5643
-1.71691,0.333367,-0.0218189,-242.063,230,-288.375,3.77783,-1.22314,0,-44,-7,-9,8,-32,-2,0,1,5660
-1.77733,0.235984,-0.0863607,-121.375,224.125,-243.563,3.80371,-0.907715,-0.0175781,8,-6,0,10,-13,0,6,11,5677
-1.77733,0.235984,-0.0863607,-121.375,224.125,-243.563,3.80371,-0.907715,-0.0175781,22,-1,-1,-2,-8,9,16,-7,5695
-1.80992,0.150842,-0.142295,-62.5,207.438,-203.438,3.54492,-0.785156,-0.457031,-7,1,1,-5,8,-1,-6,-1,5713
-1.9356,-0.0385587,-0.236217,-196,110.688,-128.063,1.646,0.0429688,-0.590332,0,-2,0,-5,-2,-1,-3,-2,5772
-2.04097,-0.0866852,-0.251998,-296.813,89.8125,-90,1.18555,-0.307129,-0.693359,9,-1,-1,-1,-1,4,21,10,5789
-2.13099,-0.11417,-0.269424,-260.5,76.375,-33.6875,0.799805,-0.715332,-0.619141,2,-4,-3,1,-7,0,-10,-12,5806
-2.1835,-0.130853,-0.288503,-155.313,69.625,-6.125,0.399902,-0.908691,-0.746094,2,-3,-2,-2,-1,-3,8,2,5823
-2.20047,-0.133069,-0.301218,-49.375,36.5625,11.75,0.0649414,-0.814941,-0.67041,-3,-2,-1,0,12,3,-1,-9,5840
-2.19027,-0.123219,-0.304735,42.375,0.75,18.875,-0.0722656,-0.647949,-0.720703,-5,1,0,1,6,-4,-1,-8,5857
-2.19027,-0.123219,-0.304735,42.375,0.75,18.875,-0.0722656,-0.647949,-0.720703,4,0,-1,-3,-2,1,8,2,5875
-2.17567,-0.106374,-0.300227,72.875,-25.75,20.3125,-0.136719,-0.583496,-0.913574,2,-1,0,-1,0,0,4,1,5892
-2.15996,-0.0795458,-0.291191,82.4375,-47.1875,29.9375,-0.261719,-0.766113,-1.11133,-1,-3,-2,0,-3,-8,-1,-6,5910
-2.1407,-0.044452,-0.287224,93.75,-48.625,57.375,-0.298828,-0.963867,-1.24902,-3,0,-3,-2,-2,-1,4,-3,5927
-2.12837,-0.0026117,-0.289188,77.75,-53.125,96.1875,-0.139648,-0.76123,-1.18066,6,-2,3,0,0,-4,-5,0,5945
-2.11291,0.0487262,-0.284645,54.625,-89.9375,121.25,0.141602,-0.461914,-0.975098,0,-8,-23,-20,-6,1,3,0,5962
-2.11291,0.0487262,-0.284645,54.625,-89.9375,121.25,0.141602,-0.461914,-0.975098,-27,7,21,53,21,-9,-102,19,5980
-2.06268,0.152151,-0.28779,102.875,-56.1875,143.063,1.58545,-0.907715,-0.387695,15,1,-9,-22,6,8,2,2,5997
-2.06268,0.152151,-0.28779,102.875,-56.1875,143.063,1.58545,-0.907715,-0.387695,27,5,10,15,8,-4,21,-7,6014
-2.0145,0.232825,-0.28293,135.5,-116.625,200.125,2.70508,-1.05615,-0.150879,16,-3,7,6,-19,-10,38,-16,6031
-1.79005,0.609603,-0.13283,37.9375,-161.438,172.938,2.25439,-0.616699,0.144043,-2,0,-3,-9,-11,-1,-5,5,6095
-1.79005,0.609603,-0.13283,37.9375,-161.438,172.938,2.25439,-0.616699,0.144043,13,0,-1,-6,-11,1,-4,-5,6112
-1.75023,0.664958,-0.0842727,31.1875,-141.063,133.25,2.13623,-0.635742,0.120605,-5,0,-2,2,2,-1,-5,-2,6129
-1.70423,0.716449,-0.0335008,38.9375,-133.938,128.313,1.72949,-0.114258,0.214844,-4,-1,4,15,-2,-1,-4,-7,6146
-1.62711,0.763077,0.0298889,95.6875,-144.625,132,1.18896,0.22168,0.235352,-1,3,0,7,-7,-1,2,-2,6163
-1.54018,0.803424,0.0901194,124.688,-121.563,118.313,0.947754,0.587402,0.171387,-2,-1,1,-3,-23,-7,-6,4,6180
-1.54018,0.803424,0.0901194,124.688,-121.563,118.313,0.947754,0.587402,0.171387,3,-5,2,11,10,-4,11,-4,6197
-1.3907,0.863963,0.205002,50.9375,-78.5,56.9375,0.333008,0.996582,0.380371,-8,1,-1,-11,-2,11,-16,15,6214
-1.3907,0.863963,0.205002,50.9375,-78.5,56.9375,0.333008,0.996582,0.380371,-5,0,-1,-11,2,2,-14,-5,6230
-1.33052,0.876565,0.266182,6,-72.375,16.1875,0.230469,0.993652,0.542969,0,-1,-1,6,27,7,12,-17,6247
-1.33052,0.876565,0.266182,6,-72.375,16.1875,0.230469,0.993652,0.542969,-2,-2,-7,-5,10,-3,24,-12,6263
-1.25221,0.888348,0.359338,-52.6875,-17.0625,-31.4375,-0.257324,1.01855,0.989258,-4,-4,-3,-5,-4,-5,4,1,6280
-1.25696,0.880341,0.365414,-78.625,26.0625,-86.9375,-0.258301,1.09375,0.899414,13,5,17,22,9,2,-8,-11,6298
-1.25696,0.880341,0.365414,-78.625,26.0625,-86.9375,-0.258301,1.09375,0.899414,42,13,20,32,0,-15,2,-22,6316
-1.33589,0.845275,0.30621,-107.813,87.375,-142.75,0.0800781,1.31836,0.651855,14,-3,-12,0,-4,4,28,-14,6333
-1.43358,0.795345,0.215629,-95.875,151.25,-182.438,0.338867,1.10986,0.27002,-28,-8,3,-8,-9,-2,19,6,6351
-1.82111,0.507468,-0.083019,-220.813,289.5,-294.938,3.75879,-1.05859,-0.335449,20,-8,0,6,-28,-8,-5,24,6415
-1.90298,0.396192,-0.156431,-142.5,273.563,-251.375,4.0293,-1.22314,-0.24707,2,-2,-2,-2,-4,-8,-21,-35,6432
-1.92892,0.293382,-0.217467,-15.3125,254.688,-221.563,3.87012,-0.833496,-0.747559,14,-2,3,-5,-7,1,1,1,6450
-1.93099,0.207009,-0.250233,17.5,172,-199.875,2.98779,-0.529297,-0.722168,-25,0,-8,-23,-6,12,7,-3,6468
-1.9709,0.137248,-0.264818,-107.125,112.688,-170.25,2.104,-0.0620117,-0.579102,-4,-1,2,-8,2,-3,-11,3,6485
-2.04536,0.0818841,-0.268145,-212.688,75.875,-140.063,1.63184,-0.0625,-0.57373,10,-1,3,-5,7,-2,0,3,6502
-2.12704,0.0352922,-0.274886,-232,72.875,-89.75,1.09814,-0.786621,-0.550781,4,-3,0,-6,-8,6,3,-1,6519
-2.12704,0.0352922,-0.274886,-232,72.875,-89.75,1.09814,-0.786621,-0.550781,-2,1,-2,-3,-27,-5,2,-7,6536
-2.17951,0.00139266,-0.287503,-153.625,77.375,-51.875,0.640137,-1.01318,-0.415039,5,0,-2,-3,4,5,10,10,6553
-2.20061,-0.0216289,-0.298087,-68.8125,55.4375,-25.3125,0.208496,-0.80957,-0.447754,-6,-2,1,1,2,-12,-7,-5,6570
-2.19997,-0.0220638,-0.30251,7.6875,12.4375,4.125,-0.0219727,-0.564941,-0.521973,0,-1,-3,-7,3,3,3,-7,6587
-2.19155,-0.00911458,-0.299078,39.3125,-22.5,15.125,-0.15918,-0.495605,-0.617676,-10,0,0,-2,1,11,-5,23,6603
-2.19205,0.0138882,-0.289177,17.0625,-50.25,21.375,-0.291504,-0.65332,-0.787109,-3,0,2,1,-1,-5,-7,-10,6620
-2.18938,0.0418899,-0.283848,26.0625,-47.6875,39.375,-0.344238,-0.955078,-1.0083,-8,-1,1,-4,1,-1,-30,21,6637
-2.18938,0.0418899,-0.283848,26.0625,-47.6875,39.375,-0.344238,-0.955078,-1.0083,13,0,-8,-9,1,0,14,-6,6653
-2.18086,0.0640036,-0.293882,57.6875,-13.0625,65.375,-0.128906,-1.00684,-1.25146,-3,-3,-2,-9,5,-1,19,-3,6669
-2.11815,0.196345,-0.309192,58.75,-89.0625,138.75,0.925781,-0.902344,-0.684082,-5,1,-14,-10,-19,-6,6,-1,6730
-2.09122,0.257511,-0.298872,70.25,-113.938,136.438,2.72314,-1.13086,-0.554688,25,2,5,5,5,-6,7,-14,6747
-2.04469,0.352385,-0.28233,119.25,-169.688,217.438,3.16992,-0.90625,-0.155273,-17,-14,-6,-5,-4,-1,-13,-5,6764
-1.95699,0.463332,-0.240815,203.813,-232.063,243.563,3.54932,-1.16309,0.222656,21,-1,8,-6,5,2,22,-9,6781
-1.84857,0.5656,-0.191159,240.875,-213.063,237.25,3.1792,-1.18262,0.117676,-2,-5,-3,-11,2,2,15,-6,6798
-1.84857,0.5656,-0.191159,240.875,-213.063,237.25,3.1792,-1.18262,0.117676,-36,0,3,3,1,-1,-21,15,6815
-1.78018,0.645071,-0.144748,119.875,-161.25,194.75,2.61816,-0.154785,0.19873,1,-2,1,3,-13,-3,1,-7,6832
-1.724,0.707901,-0.100712,81.75,-129.375,159.188,2.37646,-0.286621,0.0673828,-6,-1,-1,1,1,-6,3,-3,6849
-1.67143,0.764882,-0.0537435,60.1875,-119.5,149.438,1.77881,-0.118164,0.0947266,-1,1,0,-1,-18,-7,-4,3,6867
-1.59464,0.813832,0.0100606,89.0625,-136.375,144.188,1.24023,0.157227,0.112793,-4,1,-3,-1,-2,-1,1,8,6884
-1.497,0.85911,0.0831361,120.688,-133.688,135.125,0.756836,0.514648,0.248047,2,1,-1,-2,-1,3,-5,-3,6901
-1.39486,0.894868,0.156738,127,-117.063,114.125,0.645996,0.823242,0.191895,5,-1,-1,2,6,1,-1,-9,6918
-1.30534,0.925956,0.226306,94.25,-95.4375,106.75,0.578613,0.911621,0.225098,4,-1,2,1,2,-1,2,-7,6934
-1.30534,0.925956,0.226306,94.25,-95.4375,106.75,0.578613,0.911621,0.225098,13,-1,-1,0,-1,-4,3,-4,6951
-1.20093,0.955849,0.318117,56.75,-91.4375,87.25,0.241211,0.927246,0.460449,-3,-1,-1,0,12,7,-6,3,6968
-1.09947,0.969899,0.408039,40.125,-79.75,43.75,-0.0219727,0.918945,0.685059,-2,-4,-3,-2,-2,-6,3,0,6985
-1.13339,0.946965,0.382305,-65.25,68.375,-104.188,-0.12207,1.44141,0.665039,-37,-25,-14,-9,-5,0,14,-6,7052
-1.24667,0.901148,0.291796,-117.125,96.5,-180.313,0.207031,1.68604,0.301758,1,8,5,12,9,-1,-20,18,7069
-1.37284,0.827249,0.196628,-153.875,116.25,-250.438,0.591309,1.57568,0.125488,-5,-8,-12,0,-13,0,5,-4,7086
-1.51355,0.729053,0.106571,-222.25,146.813,-302.563,1.87646,0.960938,-0.386719,1,4,13,-24,12,-4,-20,8,7103
-1.64833,0.6054,0.0128998,-219.563,214.938,-352.813,3.88086,-0.676758,-0.647461,17,7,14,-15,21,-9,25,-20,7119
-1.64833,0.6054,0.0128998,-219.563,214.938,-352.813,3.88086,-0.676758,-0.647461,-12,-12,-5,9,23,1,-16,-18,7135
-1.74951,0.480477,-0.0602112,-181.813,224,-332.188,4.11914,-1.23193,0.0166016,27,2,-5,8,-8,-9,9,-3,7152
-1.79126,0.364601,-0.116567,-53.25,210.438,-296.813,4.22949,-1.04297,-0.485352,27,6,-5,0,2,0,31,-20,7169
-1.8148,0.271068,-0.165692,-23.5625,191.938,-230.125,3.73584,-0.529297,-0.335449,-23,-3,1,-12,-6,1,-9,18,7186
-1.84534,0.194825,-0.194401,-68.5625,133.5,-190.5,2.81543,-0.497559,-0.568848,-11,-5,-9,-15,-19,1,1,-4,7203
-1.91429,0.137515,-0.209515,-190.5,90.625,-143.5,2.08008,-0.0483398,-0.454102,-2,-1,3,7,3,-7,-3,5,7220
-2.011,0.0837184,-0.2243,-266.75,88.8125,-106.125,1.22998,-0.613281,-0.655762,8,-3,-2,-1,-8,-2,13,5,7237
-2.011,0.0837184,-0.2243,-266.75,88.8125,-106.125,1.22998,-0.613281,-0.655762,-4,-3,2,5,-3,0,-5,-2,7253
-2.09209,0.0474516,-0.246502,-227.813,96.625,-48.3125,0.902832,-0.98584,-0.591309,-10,-3,1,0,1,-3,-5,-22,7271
-2.14796,0.0208443,-0.269426,-158.188,90.4375,-22,0.564453,-0.976563,-0.593262,3,-4,-4,-4,16,5,-5,0,7289
-2.1731,0.00894935,-0.285267,-68.375,45.5625,13.375,0.279297,-0.726563,-0.55127,-12,0,0,5,11,-5,-8,3,7307
-2.18512,0.0930576,-0.284208,11.3125,-72.9375,71.9375,-0.311523,-0.684082,-0.841797,1,-2,-6,-3,0,-4,4,-6,7376
-2.18114,0.132768,-0.285953,34.8125,-58,86.875,-0.302734,-0.834473,-0.988281,-6,-4,1,2,4,6,-10,7,7394
-2.16717,0.170343,-0.294506,52.3125,-43.5,103.25,-0.0898438,-0.813965,-1.15479,-15,-2,4,20,7,-11,-32,-1,7411
-2.15043,0.211766,-0.305414,62.375,-46.9375,122.688,0.330566,-0.571777,-0.973633,7,0,11,28,9,-5,-3,-11,7428
-2.12832,0.260107,-0.3141,72.875,-61.5625,139.438,0.522461,-0.591797,-0.601563,-20,-9,-16,-18,-15,-2,9,-5,7445
-2.11013,0.313169,-0.315333,52.3125,-87.75,150.625,1.00879,-0.913086,-0.504883,-8,6,3,-6,-20,-6,-20,3,7462
-2.11013,0.313169,-0.315333,52.3125,-87.75,150.625,1.00879,-0.913086,-0.504883,-8,6,3,-6,-20,-6,-20,3,7479
-2.03292,0.481882,-0.285424,110.375,-179,232.938,3.25244,-1.14258,-0.168457,30,7,16,24,6,-2,-12,4,7496
-2.03292,0.481882,-0.285424,110.375,-179,232.938,3.25244,-1.14258,-0.168457,-27,-16,-12,-5,-16,-2,4,1,7513
-1.92919,0.593977,-0.237048,226.25,-237.5,247.5,3.44092,-1.28467,0.248535,-37,-10,3,-2,6,2,-26,22,7530
-1.81098,0.688656,-0.180552,241.625,-204.438,221.063,2.83838,-0.980957,0.0551758,7,9,1,-4,0,1,2,7,7547
-1.73773,0.761973,-0.123877,102.188,-161.625,181.25,1.94385,-0.0253906,0.194336,-1,-2,-3,-5,1,0,2,-5,7565
-1.6827,0.811172,-0.0675804,43.1875,-132.25,123.875,1.83008,-0.11377,0.0273438,1,-4,0,2,-2,5,-5,-10,7582
-1.6827,0.811172,-0.0675804,43.1875,-132.25,123.875,1.83008,-0.11377,0.0273438,-16,-4,-3,2,-5,-7,-12,-1,7600
-1.62444,0.846886,-0.0105254,46.5,-118.688,92.5,1.55908,-0.278809,0.0341797,20,3,4,7,1,1,13,-7,7616
-1.54891,0.868966,0.0529421,77.5625,-118.5,73.25,1.16309,0.0751953,0.114258,14,2,3,0,-11,-6,1,0,7633
-1.31479,0.9072,0.233145,62.375,-81.375,46.25,0.486816,0.509277,0.203613,9,-3,-4,-1,11,2,5,-9,7687
-1.23481,0.913222,0.301923,52.3125,-86.375,36.75,0.30957,0.50293,0.376953,2,-2,-4,-7,1,4,-12,15,7704
-1.15034,0.917757,0.377532,38.8125,-85.5625,31.3125,0.148926,0.642578,0.546875,7,2,4,-4,8,4,-8,-4,7721
-1.06566,0.927182,0.453885,21,-62.125,31.5625,-0.0385742,0.911133,0.819336,11,-14,-11,-2,-6,-5,2,-5,7737
-1.06566,0.927182,0.453885,21,-62.125,31.5625,-0.0385742,0.911133,0.819336,-17,-12,-4,0,-15,4,0,6,7755
-1.0539,0.928138,0.470415,-4.3125,-23.5625,15.9375,-0.245605,1.28516,1.08398,-1,16,19,4,10,8,9,-1,7772
-1.09037,0.919967,0.44563,-47.9375,26.3125,-40.9375,-0.225098,1.78516,1.125,21,1,-2,4,13,3,24,-15,7790
-1.17782,0.89158,0.362269,-62.8125,99.375,-135.75,-0.0375977,2.07568,0.822754,-10,13,6,28,6,-16,-67,24,7806
-1.29806,0.845889,0.261796,-124.375,132.875,-184.563,0.0332031,1.93164,-0.180664,-13,-3,-2,17,23,-2,-32,12,7822
-1.29806,0.845889,0.261796,-124.375,132.875,-184.563,0.0332031,1.93164,-0.180664,-34,4,-7,-10,-15,-9,-18,-3,7840
-1.67982,0.616403,-0.0116003,-274.625,320.188,-374.438,3.0835,-0.936523,-0.858398,23,-12,14,9,29,-5,27,-17,7856
-1.67982,0.616403,-0.0116003,-274.625,320.188,-374.438,3.0835,-0.936523,-0.858398,-33,-22,-13,31,-45,-19,-53,-5,7874
-1.80414,0.502315,-0.0885307,-238.875,240.188,-291.063,4.47461,-1.91309,-0.167969,34,-3,-3,8,-20,5,62,-13,7891
-1.84117,0.397861,-0.14724,-33.1875,221.5,-251.875,4.3418,-1.55859,-0.580566,4,3,-6,-12,7,4,17,-7,7908
-1.8463,0.318813,-0.178085,16.375,140.75,-195.813,3.31299,-0.604004,-0.623535,1,1,-7,-19,-9,0,12,-9,7926
-1.87975,0.259425,-0.194648,-82.3125,92.75,-150,2.45898,-0.286621,-0.554688,-1,3,1,-3,-5,-4,9,-8,7943
-2.19132,0.140968,-0.234873,-275.563,82.8125,-26.625,0.827637,-1.08496,-0.599609,1,-3,-2,0,-7,0,10,-10,8013
-2.25053,0.124789,-0.251719,-166.688,60.8125,-0.125,0.404785,-1.04102,-0.577637,1,0,0,3,2,-1,0,-3,8030
-2.26655,0.123069,-0.262518,-48.1875,15.5,30.375,0.149414,-0.771484,-0.532715,4,0,-1,-3,5,0,21,1,8047
-2.26655,0.123069,-0.262518,-48.1875,15.5,30.375,0.149414,-0.771484,-0.532715,4,0,-1,-3,5,0,21,1,8063
-2.25974,0.141445,-0.268234,31.5,-25.1875,54,-0.0405273,-0.540039,-0.625977,2,1,-2,-5,-1,3,-6,1,8080
-2.23111,0.207934,-0.257134,59.5625,-81.8125,52.4375,-0.427734,-0.764648,-1.11084,-2,-2,-5,-10,-11,-2,-9,-1,8097
-2.23111,0.207934,-0.257134,59.5625,-81.8125,52.4375,-0.427734,-0.764648,-1.11084,-6,-3,1,2,3,-2,-2,5,8114
-2.22811,0.237982,-0.259956,44.125,-54,70.25,-0.32666,-0.89502,-1.2998,-4,-4,-7,-11,-4,-5,2,-9,8131
-2.22804,0.26978,-0.276985,22.625,-23.875,103.938,0.0268555,-0.569336,-1.19043,-37,-17,12,21,10,0,-28,-6,8148
-2.21913,0.310107,-0.290584,43.5625,-47.5,120,0.254883,-0.383301,-0.845215,19,-1,9,0,-13,-1,4,-8,8165
-2.1865,0.366487,-0.294422,96.5625,-92.5,144.25,0.25,-0.73291,-0.465332,22,-4,4,-2,-1,2,17,2,8182
-2.1865,0.366487,-0.294422,96.5625,-92.5,144.25,0.25,-0.73291,-0.465332,-12,-6,5,6,2,-6,-14,0,8199
-2.12545,0.431909,-0.284367,164.063,-125.813,141.313,1.14258,-1.49023,-0.713379,-14,-5,2,9,21,-6,8,-12,8216
-2.05971,0.491563,-0.267802,167.188,-122,126.875,3.0708,-1.11133,-0.67334,1,18,11,8,19,0,-3,1,8233
-1.97483,0.579188,-0.246861,212.5,-155.125,204.5,3.53027,-1.0957,-0.500977,15,8,2,-5,-20,3,-9,-3,8250
-1.87061,0.670985,-0.205169,228.5,-182.063,213.938,3.55469,-1.32764,0.046875,13,2,-5,3,9,15,37,-7,8267
-1.64449,0.861465,-0.0422232,73.375,-128.75,129.813,1.85693,-0.411621,0.0356445,-15,-7,-3,-8,-1,-1,-6,0,8329
-1.57,0.906552,0.0150259,86.4375,-108.375,125,1.72852,0.0258789,0.0317383,1,-2,1,4,-7,1,3,-5,8347
-1.4868,0.94899,0.07958,89.125,-104.188,134.188,1.26172,0.340332,0.059082,3,2,0,-1,7,4,-3,1,8364
-1.38896,0.988044,0.159507,89.6875,-110.813,129.438,0.745605,0.364746,0.127441,1,-2,-2,-1,0,4,0,1,8381
-1.29172,1.01466,0.247996,63.375,-113.5,102.563,0.477051,0.486328,0.0864258,-12,-4,0,-2,-3,-2,-3,4,8398
-1.29172,1.01466,0.247996,63.375,-113.5,102.563,0.477051,0.486328,0.0864258,-12,1,-2,-3,-1,0,-6,6,8415
-1.1901,1.02858,0.343189,54.75,-117.75,77.125,0.337891,0.636719,0.186035,-5,-7,-1,-2,1,3,-3,-1,8432
-1.08908,1.03094,0.432251,65.125,-110.875,52.1875,0.159668,0.699707,0.350586,-14,-13,-9,-3,-5,-1,-8,5,8450
-0.98293,1.03161,0.52461,47.375,-89.3125,18.0625,0.0673828,0.927734,0.426758,-1,1,5,-3,0,3,-7,3,8467
-0.885944,1.02933,0.604934,34.875,-59.125,-9.8125,-0.0332031,1.25684,0.689453,-29,-39,-16,-4,-6,1,-2,6,8484
-0.885944,1.02933,0.604934,34.875,-59.125,-9.8125,-0.0332031,1.25684,0.689453,7,14,14,4,-5,-4,-21,3,8500
-0.876072,1.01444,0.603076,32.9375,-24.9375,-34.8125,-0.338379,1.3501,0.796875,-3,-11,-13,3,14,-6,-21,-1,8518
-0.921947,0.990019,0.559727,-27.6875,9.125,-95.875,-0.123047,1.27686,0.787598,-20,4,3,-4,4,-1,4,-2,8535
-1.01797,0.962619,0.471564,-77.1875,81.875,-160.438,0.304688,1.30518,0.572754,14,2,5,5,2,-6,-28,3,8552
-1.16033,0.925339,0.35058,-132.813,136.563,-195.813,0.775391,1.03711,0.199707,-11,2,8,-7,19,1,-37,33,8569
-1.34615,0.851771,0.202766,-203.438,188.438,-284,3.08105,0.588867,-0.30127,-19,-16,-15,7,-8,-8,-1,-9,8587
-1.78514,0.564134,-0.12948,-154.875,232.938,-249.625,4.04248,-0.911621,-0.288086,11,3,-2,-1,-5,-2,17,-20,8652
-1.85509,0.47643,-0.1889,-115.5,205.438,-207.313,3.58154,-0.758301,-0.312012,-8,1,-9,3,0,8,4,-1,8669
-1.91081,0.398363,-0.23268,-106.438,176.688,-177.938,2.80762,-0.536621,-0.467285,4,2,3,-2,6,-2,-17,10,8686
-1.97706,0.328885,-0.264622,-157.625,152.5,-154.5,1.97021,-0.288086,-0.530273,8,0,3,-2,4,-1,0,2,8703
-2.06206,0.267828,-0.28765,-224.125,132.688,-130.5,1.38379,-0.491699,-0.560059,-1,-1,-1,0,1,1,8,21,8720
-2.06206,0.267828,-0.28765,-224.125,132.688,-130.5,1.38379,-0.491699,-0.560059,-1,-1,-1,0,1,1,8,21,8736
-2.143,0.214455,-0.309225,-213.313,119.813,-86.6875,0.847168,-0.584961,-0.648926,7,-2,0,1,-2,1,13,7,8753
-2.19972,0.175555,-0.325266,-150.688,92.8125,-56.875,0.535645,-0.758301,-0.750977,-6,1,-1,1,-6,-8,-3,-10,8770
-2.23608,0.152556,-0.33601,-86.375,53.5625,-24.3125,0.0322266,-0.76709,-0.838379,-2,0,-1,2,-5,-6,-13,-5,8786
-2.24522,0.156455,-0.339676,-7.25,5.0625,5.8125,-0.31543,-0.705566,-0.878418,6,0,-3,-1,-3,-4,-1,-3,8802
-2.24522,0.156455,-0.339676,-7.25,5.0625,5.8125,-0.31543,-0.705566,-0.878418,-3,-1,4,3,1,2,-4,1,8819
-2.23688,0.172589,-0.336076,46.9375,-29.3125,13.875,-0.435547,-0.628906,-0.947754,1,-4,-4,-7,-6,4,17,-7,8837
-2.2214,0.194733,-0.327967,72.0625,-46.9375,13.75,-0.571289,-0.638184,-1.06104,-4,0,-1,9,4,-1,-13,0,8856
-2.21096,0.221498,-0.318797,65.1875,-64.8125,29,-0.515625,-0.751465,-1.28223,14,1,0,-9,0,1,-3,3,8874
-2.20694,0.246564,-0.313273,47.4375,-70.0625,52.4375,-0.16748,-0.739258,-1.2666,0,-3,-6,-12,-7,0,24,-4,8891
-2.20934,0.27453,-0.314415,24.75,-76.3125,94.875,0.272461,-0.700684,-1.07617,23,-1,-12,-14,-3,-8,27,-24,8908
-2.15363,0.441578,-0.292464,103.875,-151.813,140.25,2.99365,-1.13867,-0.484863,-7,18,14,-3,-8,1,-8,22,8970
-2.08674,0.545631,-0.270962,162.375,-202.188,226.25,3.30029,-1.22803,0.00976563,-6,-11,-12,-27,-9,8,28,-8,8987
-1.97726,0.65337,-0.23174,250.188,-220.875,235.563,3.4502,-1.52734,-0.0200195,-12,-4,0,8,5,-8,-24,6,9003
-1.90476,0.741477,-0.186995,125.313,-183,199.813,2.68311,-0.57373,0.241211,11,0,-6,-7,0,-5,33,-21,9021
-1.90476,0.741477,-0.186995,125.313,-183,199.813,2.68311,-0.57373,0.241211,5,0,0,4,24,11,2,7,9039
-1.85573,0.807782,-0.146414,59.1875,-137.188,155.688,2.36377,-0.582031,0.193359,-20,-3,-1,2,6,0,-18,8,9056
-1.81679,0.85867,-0.106376,26.625,-112.875,120.125,2.14258,-0.462891,0.0507813,-1,-5,-1,-6,5,1,-1,-8,9073
-1.77174,0.90686,-0.0625883,32.0625,-108.125,117.063,1.74219,-0.130371,0.027832,3,1,1,-1,-6,2,-1,-2,9091
-1.7052,0.955268,-0.00897953,66.6875,-114.813,132.688,1.27686,0.0766602,0.0444336,17,-1,-1,8,1,1,-2,5,9109
-1.62709,1.00076,0.0497499,84.125,-106.25,123.625,0.793945,0.303711,0.0356445,-12,-3,1,2,-1,-1,-4,-2,9127
-1.53699,1.04004,0.118643,89.3125,-103.375,109,0.45752,0.409668,0.0493164,-18,-1,-3,-8,-15,-6,-11,4,9144
-1.53699,1.04004,0.118643,89.3125,-103.375,109,0.45752,0.409668,0.0493164,2,1,-1,1,10,6,2,0,9161
-1.43129,1.07243,0.204034,88.625,-110.188,97.625,0.398926,0.568848,0.0834961,-2,2,-3,-3,-5,-1,2,4,9179
-1.30795,1.09511,0.302519,100.938,-113.188,82.75,0.294434,0.657227,0.174316,1,3,3,4,-1,-5,-4,2,9197
-1.19019,1.10731,0.398573,88,-101.938,60.875,0.163086,0.816895,0.299316,-5,-4,-4,-2,-3,1,-5,1,9214
-1.05243,1.12038,0.511415,77.9375,-79.25,36.5,0.078125,0.98877,0.512207,-12,-3,0,-1,2,-3,0,0,9231
-0.846579,1.1082,0.670156,-3.75,20.75,-71.875,0.103027,0.927246,0.788574,-8,2,-8,-3,-1,-10,-25,16,9302
-1.07652,1.07337,0.464749,-99.25,116.188,-154.375,0.876465,1.04541,0.192871,-30,-4,-4,-9,14,6,-35,23,9319
-1.07652,1.07337,0.464749,-99.25,116.188,-154.375,0.876465,1.04541,0.192871,14,-15,5,16,-3,-8,26,-14,9336
-1.30281,1.00934,0.274075,-176.438,188.375,-272.688,3.50244,-0.0136719,-0.845215,8,0,-6,-21,-3,-2,-11,-9,9353
-1.55973,0.933256,0.0781059,-272.313,284,-259.313,3.13574,-1.03174,-0.0205078,-1,-3,2,2,-1,-3,-4,-18,9371
-1.72884,0.830804,-0.0556023,-188.313,264.625,-275,4.88818,-1.69141,-0.388672,22,4,2,3,-5,1,14,-12,9389
-1.85704,0.726017,-0.152659,-172.063,259.5,-249.188,3.98291,-1.08057,-0.685059,-8,0,1,14,-10,-4,0,-17,9406
-1.85704,0.726017,-0.152659,-172.063,259.5,-249.188,3.98291,-1.08057,-0.685059,-7,3,-4,4,-23,4,-9,1,9423
-1.91275,0.643191,-0.195055,-82.75,163,-196.5,2.73926,-1.2749,-0.64209,-5,1,3,5,2,-25,4,-12,9440
-1.94031,0.578941,-0.215357,-45.375,108.875,-156.188,1.90479,-0.462891,-0.681641,0,1,3,-8,1,0,11,1,9457
-1.98912,0.519935,-0.220713,-124.563,64.625,-133.938,1.32471,0.107422,-0.525391,3,2,1,-10,-14,-3,9,10,9475
-2.06366,0.488352,-0.228772,-202.5,57.75,-72.4375,1.22803,-0.529297,-0.711914,0,-1,-4,3,-14,3,2,-1,9492
-2.13667,0.455374,-0.25013,-181.25,86.8125,-39.6875,0.481934,-1.021,-0.634277,3,-4,-2,-1,-2,0,4,1,9509
-2.18301,0.432711,-0.266211,-115.5,66.875,-23.8125,0.0424805,-0.886719,-0.443848,1,-2,1,-3,-3,4,-2,-6,9526
-2.18301,0.432711,-0.266211,-115.5,66.875,-23.8125,0.0424805,-0.886719,-0.443848,0,-2,1,-2,-7,5,1,3,9543
-2.20164,0.420117,-0.276468,-42.9375,34.125,0,-0.111816,-0.679688,-0.458984,-8,-4,-6,-2,5,-1,1,5,9560
-2.20939,0.432544,-0.293879,31.5625,-22.1875,41.875,-0.311035,-0.768066,-1.03125,8,1,1,-13,-4,0,2,1,9611
-2.21158,0.447293,-0.307342,44.6875,-22.5,61.125,-0.316406,-0.736816,-1.22119,9,1,5,0,2,-9,-5,-4,9628
-2.21761,0.464187,-0.323724,40.75,-30.5625,80.3125,-0.0366211,-0.583008,-1.17383,1,-3,-8,-3,3,0,14,-5,9645
-2.21761,0.464187,-0.323724,40.75,-30.5625,80.3125,-0.0366211,-0.583008,-1.17383,11,-2,1,-19,-7,0,14,-9,9663
-2.21444,0.48265,-0.33881,46.8125,-37.625,98.5,0.254883,-0.62793,-0.829102,-20,3,9,25,-17,-10,-36,5,9680
-2.20061,0.482749,-0.352597,55,-17.375,85,0.68457,-0.929199,-0.609375,13,-3,-2,6,-15,-5,35,-18,9698
-2.17128,0.521779,-0.345436,74.125,-79.25,80.75,2.05762,-1.31787,-0.626465,-22,-2,3,5,-3,-3,-18,9,9715
-2.11833,0.594565,-0.335302,136.625,-134.125,161.625,3.3501,-1.16748,-0.314453,41,-1,5,3,-1,14,43,-12,9732
-2.01933,0.70504,-0.292455,209,-237.375,231.813,3.17676,-1.60449,0.106934,-14,3,-8,-3,10,4,7,8,9749
-2.01933,0.70504,-0.292455,209,-237.375,231.813,3.17676,-1.60449,0.106934,-14,3,-8,-3,10,4,7,8,9765
-1.91991,0.807429,-0.237546,176.938,-219.688,226,2.54541,-1.33887,0.265137,2,0,-2,-1,11,-4,-5,1,9782
-1.86389,0.88989,-0.190355,59.1875,-159.625,195.813,2.12402,-0.720215,0.406738,11,-2,-2,-8,6,-3,13,-15,9800
-1.81989,0.953043,-0.146584,25.5625,-121.688,154.375,1.77051,-0.547852,0.124512,-9,0,0,1,8,-8,-10,-9,9817
-1.78666,1.00615,-0.0992479,-16.9375,-108.5,130.25,1.66064,-0.197754,0,-13,-2,-1,-8,-16,0,-7,5,9834
-1.73698,1.05444,-0.0403419,-3.375,-111.938,130.563,1.44873,0.0454102,0.09375,-2,0,-3,5,7,0,-7,6,9851
-1.6582,1.09829,0.0340331,37.6875,-115.75,117.625,1.09131,0.157227,0.0893555,1,0,3,5,8,1,-9,6,9868
-1.28609,1.16292,0.339563,97.9375,-108.438,48.5625,0.184082,0.364746,0.161133,7,-2,-8,0,-10,-4,-4,0,9940
-1.1514,1.16946,0.44784,87,-85,32.125,0.0317383,0.453613,0.35791,-5,-4,3,1,-9,-5,3,-7,9957
-1.02472,1.17225,0.546768,77.4375,-53.375,12.4375,0.0107422,0.73584,0.630371,10,1,11,10,2,-5,-11,-4,9973
-0.909663,1.17634,0.630795,70.6875,-13.4375,-8.0625,-0.0786133,1.10303,0.895508,0,-6,-2,-13,1,-2,9,-7,9991
-0.934697,1.16949,0.591407,32.75,23,-42.5625,-0.208008,1.30127,0.872559,-8,-3,-13,-5,-1,-1,4,3,10008
-1.01887,1.15189,0.513291,-45.1875,57,-110.688,0.0498047,1.25586,0.708008,4,-1,-12,6,-1,-10,-11,-10,10024
-1.01887,1.15189,0.513291,-45.1875,57,-110.688,0.0498047,1.25586,0.708008,-4,-3,3,-12,-2,-5,-14,9,10041
-1.17593,1.11936,0.381851,-115.063,108.813,-171,0.491699,1.19873,0.581543,-5,0,-10,26,12,3,-5,-13,10059
-1.3921,1.05555,0.204987,-174,180.313,-242.125,1.21582,0.751953,0.264648,-21,1,-2,8,13,1,-17,14,10076
-1.62497,0.940836,0.0291315,-243.063,252.75,-345.063,2.94678,0.153809,-0.19873,14,-1,-3,-8,-8,-4,13,-8,10094
-1.79619,0.827939,-0.0941464,-216.688,267.063,-289.125,3.7583,-0.789063,0.0229492,16,-3,2,-15,-24,2,20,-28,10112
-1.9109,0.722176,-0.196026,-124.375,285.188,-232.938,4.24854,-1.78613,-0.0751953,2,4,11,13,8,10,9,-4,10130
-1.95061,0.625991,-0.259552,0,230.438,-207.75,3.36377,-1.33789,-0.223633,-31,3,5,21,-2,-7,-16,-14,10148
-1.96527,0.54992,-0.290363,7.125,150.25,-174.25,2.82764,-0.562012,-0.286621,12,4,6,4,15,-6,1,-3,10165
-2.01258,0.488245,-0.307865,-110.563,111.563,-144,2.15332,-0.214844,-0.239258,5,3,0,-1,3,-3,6,-5,10182
-2.01258,0.488245,-0.307865,-110.563,111.563,-144,2.15332,-0.214844,-0.239258,-2,-2,-4,-5,3,-8,-4,1,10199
-2.22033,0.384358,-0.345689,-128.563,62.5,-24.5,0.925293,-0.835449,-0.458496,3,-2,0,0,-5,-1,-7,1,10255
-2.24427,0.355966,-0.357582,-55.375,40.4375,-0.9375,0.572754,-0.584961,-0.476074,-8,-3,-5,-2,0,-7,7,-7,10272
-2.2597,0.348921,-0.365882,-28.8125,10.0625,18.625,0.20166,-0.42041,-0.485352,-4,-1,-1,0,-2,-2,-16,-9,10289
-2.26971,0.353941,-0.37008,-13.8125,-11.375,25.375,-0.0424805,-0.378906,-0.530762,0,-1,-3,-5,-6,2,3,1,10306
-2.26971,0.353941,-0.37008,-13.8125,-11.375,25.375,-0.0424805,-0.378906,-0.530762,-1,-1,-8,-10,-7,-2,9,-5,10323
-2.27999,0.364118,-0.370173,-13.8125,-24.8125,20.4375,-0.25,-0.417969,-0.675781,-3,3,3,9,0,-3,-5,11,10340
-2.28853,0.377141,-0.367033,-10.6875,-35.3125,17.5625,-0.404297,-0.567871,-0.837891,8,-5,-10,-8,-8,3,18,1,10357
-2.29557,0.390339,-0.367744,4.5625,-34.625,27.75,-0.409668,-0.668457,-1.07715,-1,11,13,25,8,-3,-28,2,10374
-2.30078,0.402415,-0.373751,22.25,-34.8125,43.4375,-0.199707,-0.602051,-1.16943,-35,-7,-13,-5,-7,-13,-40,22,10392
-2.29656,0.406468,-0.382027,49.625,-31.8125,50.5625,0.270508,-0.51709,-1.0415,-46,-8,-34,-10,-13,-9,-26,19,10409
-2.29656,0.406468,-0.382027,49.625,-31.8125,50.5625,0.270508,-0.51709,-1.0415,4,4,42,39,23,6,-25,15,10426
-2.26142,0.39224,-0.396932,53.1875,-23.125,61.375,0.87207,-1.11377,-0.613281,-8,-9,-48,-30,-5,3,34,-20,10443
-2.26142,0.39224,-0.396932,53.1875,-23.125,61.375,0.87207,-1.11377,-0.613281,-17,0,5,6,-1,-3,-33,6,10461
-2.2358,0.426733,-0.389966,65.1875,-76.125,65.5625,1.55859,-1.11572,-0.53418,33,-1,2,-20,-29,4,48,-23,10478
-2.18943,0.478586,-0.362246,98.375,-146.25,76.0625,2.76709,-1.08643,-0.304199,-10,-1,3,3,-31,1,10,-2,10495
-2.12257,0.560883,-0.329195,144.375,-199.188,151.25,3.29248,-1.03076,0.0229492,-25,-3,0,2,3,-2,-32,12,10512
-1.89437,0.777028,-0.194427,95.6875,-144.5,117.5,1.94336,-0.291016,0.337891,11,6,1,5,11,-1,-6,-11,10582
-1.85514,0.825217,-0.15525,31.75,-115.813,108.438,1.7207,-0.260254,0.225586,4,-6,-13,-18,-8,2,32,-14,10598
-1.81897,0.866718,-0.116963,18.75,-102.563,111.813,1.45459,-0.0834961,0.215332,0,0,4,-10,-11,3,-1,1,10615
-1.76903,0.907755,-0.0709209,38.375,-107.125,107.75,1.16357,0.0498047,0.212402,0,0,3,0,3,-1,-11,10,10632
-1.70087,0.94595,-0.0132729,61.375,-114.5,97.8125,0.86084,0.167969,0.186523,-4,-5,-13,-10,-16,-1,11,-3,10650
-1.70087,0.94595,-0.0132729,61.375,-114.5,97.8125,0.86084,0.167969,0.186523,4,3,2,6,-15,-3,-10,0,10667
-1.54804,1.00787,0.121948,45.125,-95.1875,61.125,0.254883,0.559082,0.31543,6,2,4,5,6,-5,-10,1,10684
-1.46535,1.03102,0.19513,38,-75.375,37.4375,0.0927734,0.675293,0.503906,3,-1,-6,0,-2,-6,5,-2,10701
-1.46535,1.03102,0.19513,38,-75.375,37.4375,0.0927734,0.675293,0.503906,-3,-3,0,-2,-4,-3,-1,-4,10719
-1.39334,1.04653,0.259804,20.25,-47.6875,13.3125,-0.00585938,0.73584,0.663086,3,-2,-7,-1,-11,-1,1,-3,10736
-1.34325,1.05422,0.306514,-3,-16.9375,-11.0625,-0.0161133,0.766602,0.738281,3,1,2,6,4,1,5,-1,10754
-1.32201,1.05388,0.326836,-17.6875,13.0625,-38.8125,-0.065918,0.706543,0.702148,2,-3,-1,1,6,1,1,-4,10772
-1.33749,1.0417,0.313704,-35.75,43.6875,-72.9375,0.00341797,0.585938,0.572754,3,0,0,-7,-2,1,8,-1,10790
-1.40633,1.01306,0.252604,-52.3125,79.0625,-105.375,0.134766,0.573242,0.435547,-2,-5,-14,-13,-3,0,12,-4,10807
-1.50378,0.969981,0.163675,-67.5,126.25,-141.063,0.537598,0.555176,0.106934,6,-1,0,-20,-10,0,24,-5,10824
-1.62234,0.904436,0.0497226,-76.4375,192,-189.125,2.64404,0.415527,0.0854492,44,1,2,37,13,-5,15,-27,10841
-1.92505,0.693429,-0.26381,23.625,163.75,-76.6875,3.12793,-1.96436,-0.234863,-8,-2,7,-4,-13,2,-5,7,10902
-1.92505,0.693429,-0.26381,23.625,163.75,-76.6875,3.12793,-1.96436,-0.234863,5,1,5,1,12,1,-3,5,10919
-1.91738,0.662491,-0.288718,66.3125,82.625,-64.125,2.57617,-0.870605,-0.371094,-10,3,4,-11,-6,5,-3,2,10937
-1.95011,0.635681,-0.305534,-64.5625,63,-58.3125,1.92773,-0.194336,-0.280762,-13,3,5,-3,7,-2,-1,3,10954
-2.03159,0.607492,-0.31321,-220.625,49.375,-66.3125,1.55957,-0.0805664,-0.243652,4,1,3,-2,17,-2,-7,0,10971
-2.12757,0.58008,-0.320048,-263.313,40.125,-39.8125,1.3208,-0.479492,-0.366699,15,-2,2,-16,-6,0,11,-9,10988
-2.21019,0.554541,-0.332765,-218.125,55.125,-25.75,0.862305,-0.730957,-0.482422,-7,-3,0,1,-10,-2,-6,-5,11004
-2.26692,0.537526,-0.344805,-146.063,44.9375,-7.6875,0.506836,-0.728516,-0.462402,-3,-3,-1,4,1,0,-6,0,11021
-2.26692,0.537526,-0.344805,-146.063,44.9375,-7.6875,0.506836,-0.728516,-0.462402,-6,0,-1,1,-10,7,9,5,11039
-2.2959,0.524214,-0.35331,-78.3125,21.875,13,0.126465,-0.640137,-0.399414,-1,0,1,-4,1,2,-3,1,11056
-2.30526,0.529352,-0.359928,-16.9375,-4.75,29.875,-0.136719,-0.402344,-0.367676,-3,1,-1,-1,0,-7,-13,-3,11072
-2.30564,0.543249,-0.365217,19.375,-19.0625,28.8125,-0.356445,-0.177734,-0.445313,3,-1,-1,-3,-4,-8,2,-10,11090
-2.2959,0.555884,-0.367809,54.25,-26.5,18.9375,-0.464844,-0.220703,-0.697266,-4,-1,-7,-6,-5,-13,-10,-6,11108
-2.27564,0.563655,-0.366071,86.6875,-39.8125,9.125,-0.485352,-0.46582,-1.08398,-9,-2,-1,1,1,2,-2,-9,11126
-2.27046,0.56238,-0.376342,84.9375,-31.25,21.8125,-0.230957,-0.518066,-1.62256,8,-2,-1,1,3,3,-4,16,11143
-2.27046,0.56238,-0.376342,84.9375,-31.25,21.8125,-0.230957,-0.518066,-1.62256,12,-2,7,7,14,6,20,-16,11160
-2.19015,0.554214,-0.344412,81.375,-108.063,13.3125,2.92822,-1.50586,-0.381836,-7,-3,5,0,-5,4,-11,5,11223
-2.09006,0.627142,-0.316029,241.375,-169.75,139.438,3.19727,-1.74219,0.102539,12,-6,-10,-24,-18,-2,2,-4,11239
-2.09006,0.627142,-0.316029,241.375,-169.75,139.438,3.19727,-1.74219,0.102539,-13,3,3,3,15,-5,-4,4,11256
-1.96027,0.705173,-0.264922,281.563,-202,150.75,3.10205,-1.36377,0.0439453,-15,3,0,5,7,-7,-33,17,11273
-1.88069,0.76482,-0.220632,142.625,-147,128.313,2.09814,-0.768066,0.48877,1,-7,2,5,19,0,0,-2,11289
-1.83215,0.814474,-0.1871,71.25,-105.063,117.25,1.8125,-0.520508,0.392578,-3,-2,4,5,5,-1,-4,-5,11306
-1.80707,0.856539,-0.159498,12.875,-81.3125,103.813,1.69141,-0.571289,0.211426,-17,-6,-4,-5,-3,-3,-3,-10,11323
-1.80707,0.856539,-0.159498,12.875,-81.3125,103.813,1.69141,-0.571289,0.211426,-11,-4,-3,-2,0,-3,7,-8,11340
-1.74132,0.939265,-0.100566,37.5625,-79.4375,117.625,1.16162,0.180664,0.182617,-1,-1,1,-4,3,4,-7,3,11357
-1.74132,0.939265,-0.100566,37.5625,-79.4375,117.625,1.16162,0.180664,0.182617,-1,1,-3,2,-5,-1,-4,2,11374
-1.68872,0.97232,-0.056413,43.4375,-82.8125,98.3125,0.741699,0.233887,0.119141,1,-1,-3,-4,-9,-1,-3,4,11391
-1.63133,1.00176,-0.00740237,43.875,-78.5,71.3125,0.394043,0.351563,0.121582,-5,-1,-2,2,-4,3,-4,6,11409
-1.57246,1.02359,0.0405389,44.9375,-63.1875,39.875,0.209961,0.479492,0.197754,-1,0,-1,0,-1,1,-1,-2,11427
-1.51393,1.03922,0.0876962,38.5,-46.375,14.9375,0.111816,0.599609,0.361816,1,-2,-2,-2,-4,0,-1,1,11444
-1.51393,1.03922,0.0876962,38.5,-46.375,14.9375,0.111816,0.599609,0.361816,3,0,0,0,2,-1,0,0,11461
-1.41839,1.05561,0.160915,17.3125,-1.3125,-20.5,-0.111328,0.594238,0.710449,-6,-2,-3,0,-2,-5,-4,-1,11479
-1.42121,1.04416,0.138938,-8.5625,91.3125,-92.25,0.124023,1.0708,0.597168,-2,-7,-4,-6,-5,-2,28,-17,11546
-1.42121,1.04416,0.138938,-8.5625,91.3125,-92.25,0.124023,1.0708,0.597168,-6,1,-22,-42,-4,2,8,5,11564
-1.49497,1.00626,0.0651363,-33.4375,100.188,-132.25,0.197266,0.94873,0.225586,17,3,3,-3,2,1,-1,14,11581
-1.78768,0.846513,-0.122621,-242.125,217.313,-245.563,3.86621,-0.0947266,-0.502441,-3,3,8,24,6,-2,-27,4,11598
-1.78768,0.846513,-0.122621,-242.125,217.313,-245.563,3.86621,-0.0947266,-0.502441,-18,2,-5,15,2,-6,-5,-3,11615
-1.91747,0.743775,-0.204339,-204.688,239.75,-237.375,3.88818,-1.20459,-0.123535,50,-3,3,-1,-14,-3,38,6,11633
-2.00217,0.657354,-0.263457,-133.313,213.625,-180.188,3.86182,-1.41455,-0.261719,-16,-2,7,5,-9,3,-12,-11,11651
-2.00998,0.584026,-0.286726,16.1875,137.875,-167.563,3.1499,-1.20117,-0.429688,-10,-1,-5,-1,-2,6,-8,13,11668
-2.00953,0.52319,-0.288504,4.125,78,-156,2.3916,-0.588867,-0.632813,-1,2,-2,4,6,1,-1,2,11686
-2.05883,0.479407,-0.279829,-153.188,36.5,-122.125,1.76611,-0.0947266,-0.231445,-14,-2,-2,-6,11,-1,1,-8,11703
-2.13869,0.44037,-0.266717,-244.938,14.6875,-92.5625,1.36523,-0.350586,-0.290039,3,0,-4,-12,4,4,9,-5,11720
-2.13869,0.44037,-0.266717,-244.938,14.6875,-92.5625,1.36523,-0.350586,-0.290039,-2,-3,-4,-6,-15,0,1,-12,11737
-2.20702,0.405114,-0.269463,-194.563,51.625,-61.1875,0.921387,-0.887207,-0.51123,2,-2,8,7,-5,-4,-3,0,11754
-2.24843,0.372628,-0.272914,-119.875,56.75,-55.0625,0.54541,-0.950684,-0.362793,-3,-1,0,5,-2,-3,3,-9,11772
-2.26492,0.343763,-0.272825,-52.3125,32.3125,-37.125,0.21582,-0.681152,-0.463867,6,-1,0,1,-3,-5,2,6,11789
-2.26662,0.338397,-0.271798,-3.375,-1.375,-4.1875,-0.0668945,-0.545898,-0.508301,-5,-1,1,-3,1,1,-3,1,11807
-2.23208,0.376164,-0.267963,68.625,-29.1875,25.4375,-0.431641,-0.801758,-1.03516,-3,-5,-5,-6,-6,-4,7,-3,11868
-2.22814,0.381914,-0.27935,58.4375,-12.5625,43.1875,-0.149414,-0.737305,-1.23584,-1,2,14,14,5,0,-17,6,11885
-2.22814,0.381914,-0.27935,58.4375,-12.5625,43.1875,-0.149414,-0.737305,-1.23584,14,-2,-9,-24,-6,3,30,-7,11902
-2.23087,0.396775,-0.296451,51.8125,-25.3125,78.9375,0.103027,-0.453613,-1.14941,-4,-5,-6,-26,-9,-3,5,-4,11919
-2.2247,0.425379,-0.297203,55.8125,-84.25,86.0625,0.273926,-0.206055,-0.89502,19,9,9,-7,-10,6,14,5,11936
-2.18782,0.418572,-0.306979,85.9375,-9.6875,79.375,1.01221,-1.00732,-0.102051,-8,7,34,57,15,5,-57,12,11952
-2.16617,0.460751,-0.307003,62.125,-68.75,99.125,1.63818,-1.33105,-0.641113,4,-2,-6,-6,-13,-11,-4,-14,11969
-2.10895,0.530568,-0.292537,144.313,-138.375,149.313,3.25195,-1.11816,-0.328613,-3,-3,-6,32,9,-6,-3,-2,11986
-2.02164,0.629423,-0.262007,202.25,-199.125,214.75,3.38281,-1.39746,0.0249023,6,1,0,-8,-5,1,-2,-3,12003
-2.02164,0.629423,-0.262007,202.25,-199.125,214.75,3.38281,-1.39746,0.0249023,-10,-1,-3,-15,10,9,-2,5,12020
-1.92983,0.717002,-0.230289,206.125,-164.313,203,2.84033,-1.1665,-0.0537109,-23,-6,-19,-8,-1,-14,-12,-2,12037
-1.87714,0.790629,-0.199558,90.75,-129.813,178.313,1.87939,-0.635742,0.117676,25,-1,4,-1,-3,1,13,-11,12054
-1.82372,0.846915,-0.159002,67.8125,-120.938,133.25,1.79297,-0.591309,-0.0126953,-6,-11,-7,-14,-5,-2,5,-7,12071
-1.76637,0.891945,-0.107219,51.4375,-121.875,104.125,1.98535,-0.455078,-0.163574,-4,-3,-2,4,5,0,-1,-3,12088
-1.69062,0.937689,-0.0411561,66.5625,-134.625,111.625,1.62842,-0.0732422,-0.146973,-1,-3,-7,-7,-5,-4,2,0,12105
-1.69062,0.937689,-0.0411561,66.5625,-134.625,111.625,1.62842,-0.0732422,-0.146973,7,-2,-2,-6,-13,-8,11,-2,12122
-1.22101,1.0377,0.343495,104.563,-122.688,76.0625,0.378906,0.856445,0.251953,4,-3,1,-5,-5,2,-5,1,12183
-1.22101,1.0377,0.343495,104.563,-122.688,76.0625,0.378906,0.856445,0.251953,6,-1,-4,-7,-2,-3,2,-3,12199
-1.09508,1.05452,0.450913,63.625,-85.0625,53.625,0.16748,0.956543,0.576172,12,-3,1,-1,4,-2,-9,5,12216
-0.993228,1.05767,0.535894,37.25,-48.5625,7.375,0.0200195,1.03467,0.833496,-10,-11,-3,-4,-3,-2,1,2,12234
-0.912838,1.05103,0.59347,38.9375,-16.125,-29.1875,-0.0292969,1.00781,1.02979,-5,3,-2,-3,-1,-4,-3,1,12251
-0.858338,1.04112,0.620345,43.5625,11.375,-47.875,-0.228027,0.763184,1.06299,1,-4,-4,-17,-11,2,28,-10,12269
-0.860594,1.03126,0.606677,-12.3125,36.3125,-92.0625,-0.223633,0.870605,0.750977,-2,-2,-4,16,8,-7,-29,-4,12287
-0.958478,1.01381,0.522403,-83.3125,74.875,-131.75,0.102539,1.10205,0.398438,-15,-4,-6,1,2,2,-7,-4,12305
-0.958478,1.01381,0.522403,-83.3125,74.875,-131.75,0.102539,1.10205,0.398438,24,1,12,9,7,0,13,-3,12322
-1.11258,0.987004,0.409567,-174.375,115.125,-163.313,0.774414,1.02588,0.065918,-21,-9,-12,-27,-8,4,16,6,12339
-1.31753,0.926607,0.272437,-265.938,152.313,-241.25,4.36768,0.186035,-0.741211,-4,6,3,17,18,-17,-19,-10,12356
-1.54799,0.852951,0.0991726,-274.063,280.938,-252.188,3.34082,-1.14941,-0.00830078,18,-7,-10,-15,-29,5,31,-24,12373
-1.69074,0.770984,-0.019879,-161.625,246.375,-222.938,3.98877,-1.37988,-0.279297,24,-5,7,13,-21,1,10,-14,12390
-1.77492,0.690867,-0.107684,-72.9375,221.75,-196.313,3.23682,-1.14551,-0.463867,0,1,2,8,3,1,-17,8,12407
-1.82059,0.620556,-0.162361,-35.375,166.375,-168.125,2.86816,-0.609863,-0.547363,-9,-2,-4,2,11,4,-6,8,12424
-1.82059,0.620556,-0.162361,-35.375,166.375,-168.125,2.86816,-0.609863,-0.547363,-4,-4,1,-12,-7,4,-2,-3,12441
-2.14835,0.409515,-0.263603,-233.125,94.625,-63.9375,0.904785,-0.734375,-0.715332,-4,-2,-2,4,-2,-2,-5,-4,12516
-2.20964,0.379907,-0.277853,-159.688,71.3125,-36.75,0.439941,-0.839355,-0.654785,-6,0,-2,3,6,1,-8,-3,12533
-2.24097,0.359193,-0.288227,-74.9375,41.875,-11.8125,0.015625,-0.702148,-0.636719,-1,-2,-2,3,1,-4,1,-4,12550
-2.24655,0.355627,-0.295435,4.0625,14.4375,4.9375,-0.271973,-0.615234,-0.73877,2,-2,-3,0,6,4,1,-8,12566
-2.23778,0.360919,-0.297802,49.1875,-12,12.125,-0.366211,-0.614746,-0.905273,4,-2,0,-3,4,4,0,4,12583
-2.23778,0.360919,-0.297802,49.1875,-12,12.125,-0.366211,-0.614746,-0.905273,1,-2,-2,-5,-2,-5,4,-10,12601
-2.22075,0.371549,-0.297979,74.375,-31.9375,26.375,-0.334473,-0.762207,-1.05859,-15,0,11,12,7,0,-33,23,12618
-2.19997,0.380027,-0.296619,93.25,-41.0625,26.125,-0.287598,-0.919434,-1.32129,18,-3,2,-3,-4,1,36,-22,12635
-2.20114,0.384398,-0.302061,53.3125,-36.5625,39.9375,0.0605469,-0.682129,-1.45654,-5,-1,-3,-9,-7,4,1,-3,12652
-2.21737,0.394891,-0.310451,-0.125,-45.125,71.9375,0.52002,-0.286133,-0.94043,9,-2,6,8,9,-5,12,-10,12669
-2.2162,0.38002,-0.326241,11.8125,12,59.625,0.970215,-0.725586,-0.359375,-11,-2,-15,-1,-6,0,-16,2,12685
-2.22062,0.398611,-0.334589,-3.9375,-14.625,55.8125,1.57178,-1.4585,-0.471191,-12,0,-13,-29,-14,3,-19,19,12702
-2.22062,0.398611,-0.334589,-3.9375,-14.625,55.8125,1.57178,-1.4585,-0.471191,-21,3,20,37,19,-5,-29,8,12719
-2.18251,0.451834,-0.323836,96.4375,-112.688,106.813,2.79932,-1.29346,-0.219727,1,-6,-14,-20,-13,4,21,-8,12737
-2.08774,0.544811,-0.301348,240.688,-190.625,194.875,3.18896,-1.57227,0.0703125,8,0,-2,-8,7,-1,8,-2,12754
-1.96194,0.648009,-0.267083,305.75,-203.063,230.625,2.90479,-0.942871,0.0390625,-7,3,-2,-1,16,0,-2,0,12772
-1.75762,0.861786,-0.160628,76.4375,-116.5,157.5,1.93506,-0.154297,0.161621,2,-1,1,1,-4,-3,3,-4,12831
-1.69431,0.92447,-0.107849,63.3125,-121.438,162.625,1.55469,-0.00830078,0.176758,2,-4,-4,-2,1,-3,0,-4,12848
-1.60483,0.977854,-0.0369164,88.5,-126.688,150.938,1.08154,0.15918,0.257813,-7,2,1,1,-9,-5,-9,0,12865
-1.49759,1.01921,0.0434073,112.25,-119.5,123.625,0.806641,0.299316,0.15625,1,0,0,2,-5,-1,1,-3,12883
-1.49759,1.01921,0.0434073,112.25,-119.5,123.625,0.806641,0.299316,0.15625,-1,-2,-3,-4,-2,3,1,1,12900
-1.39065,1.05043,0.126533,99.25,-106.063,102.625,0.589844,0.443359,0.162109,3,-2,-2,-2,11,0,1,-3,12917
-1.2819,1.078,0.213777,82.75,-87.25,81.625,0.429688,0.616699,0.138184,1,-6,-13,-6,-11,-2,1,-2,12934
-1.17574,1.09843,0.30111,67.1875,-71.0625,60.0625,0.181152,0.645508,0.269043,-1,1,7,6,-2,1,-2,1,12951
-1.07228,1.1126,0.3875,54.6875,-57.4375,39.5625,-0.0795898,0.690918,0.427734,5,2,1,1,-6,-2,-2,-1,12968
-1.07228,1.1126,0.3875,54.6875,-57.4375,39.5625,-0.0795898,0.690918,0.427734,-5,-3,-5,-5,2,-1,-2,-1,12985
-0.90745,1.13043,0.519808,23.9375,-3.0625,-26.5625,-0.333008,1.23633,0.739746,-5,-11,-5,-3,-2,-2,1,-4,13002
-0.90745,1.13043,0.519808,23.9375,-3.0625,-26.5625,-0.333008,1.23633,0.739746,-17,2,10,-6,-1,4,2,-1,13020
-0.883298,1.13206,0.534125,-7.0625,24.625,-73.75,-0.272949,1.32031,0.64502,18,-4,-2,16,7,-4,25,-8,13037
-0.99239,1.10511,0.443963,-80.5625,45.5,-128.875,0.000976563,1.42822,0.496582,-6,1,-7,-13,5,2,-11,13,13055
-1.1459,1.0609,0.324546,-137.75,79.625,-188,0.550293,1.51123,0.311523,10,0,12,9,2,4,28,-12,13072
-1.36291,0.968437,0.170781,-247.188,139,-324,3.11523,1.04883,-0.297852,14,2,22,17,-6,-6,16,-17,13089
-1.73456,0.742103,-0.0812795,-255.563,214.125,-305.063,4.28955,-1.68604,0.050293,-8,-9,1,-5,-21,-6,0,-9,13145
-1.80914,0.640407,-0.144439,-98.125,194.938,-257.813,3.76709,-1.34668,-0.458984,-23,0,-8,7,10,8,-25,10,13163
-1.84432,0.562579,-0.175136,-51.125,126.625,-197.625,3.13184,-1.01074,-0.310059,8,-3,-8,-3,4,-10,21,-18,13180
-1.8785,0.50383,-0.188885,-77.8125,80.6875,-151.625,2.41846,-0.337891,-0.266602,-5,-1,-4,-11,2,1,-18,18,13198
-1.95103,0.453462,-0.19729,-197.125,68.875,-128.75,1.76465,-0.162598,-0.338867,-4,-2,-2,5,-20,-5,-3,-1,13215
-2.03598,0.416215,-0.215751,-221.375,87.4375,-77.4375,1.2959,-0.645508,-0.469238,2,-1,-1,0,-13,2,-8,18,13232
-2.10679,0.378357,-0.234568,-181.563,86.3125,-54.8125,0.855469,-0.769043,-0.455078,-7,-3,-1,-4,-6,-3,-4,-3,13249
-2.14975,0.352899,-0.25094,-104.813,66.9375,-26,0.632324,-0.664063,-0.543945,-7,-2,-2,-4,-3,1,-13,-2,13266
-2.14975,0.352899,-0.25094,-104.813,66.9375,-26,0.632324,-0.664063,-0.543945,1,-2,-1,-3,-4,-3,1,0,13283
-2.19034,0.336642,-0.268568,-17.9375,-2.4375,19.9375,-0.0341797,-0.467285,-0.649902,-8,0,0,1,4,-5,-8,-1,13301
-2.19034,0.336642,-0.268568,-17.9375,-2.4375,19.9375,-0.0341797,-0.467285,-0.649902,4,-1,-2,-4,-2,3,5,-4,13318
-2.19868,0.345201,-0.269324,1.9375,-24.5,21.9375,-0.212402,-0.520508,-0.844727,6,-1,-1,-1,1,4,3,6,13334
-2.2026,0.357961,-0.265199,14.8125,-46.3125,25.75,-0.285156,-0.710449,-1.08496,-3,-2,-6,-8,-3,1,-3,-3,13351
-2.20374,0.366468,-0.264166,29.6875,-48.6875,40,-0.00634766,-0.87793,-1.27637,6,-1,0,-1,2,-1,5,-1,13368
-2.20776,0.37706,-0.275011,36.3125,-33.9375,70.625,0.187012,-0.739746,-1.2334,-8,-3,3,4,4,-7,-11,1,13385
-2.20776,0.37706,-0.275011,36.3125,-33.9375,70.625,0.187012,-0.739746,-1.2334,17,-5,-7,-6,-7,-6,17,-12,13402
-2.16164,0.486551,-0.307492,86.3125,-46.5625,101.188,1.40918,-0.966309,-0.297852,11,-4,-5,-10,-2,0,12,-5,13462
-2.11728,0.544288,-0.304875,123.313,-94.5625,136.125,2.55127,-1.15137,-0.22998,11,-4,-5,-10,-2,0,12,-5,13480
-2.05281,0.63212,-0.30195,179.875,-129.938,215.875,3.11963,-1.19336,0.172852,-1,-4,-7,6,0,-6,14,-14,13497
-1.97169,0.722351,-0.280208,193.5,-154.438,213.125,3.10303,-0.950684,0.0527344,6,0,1,3,15,12,18,-5,13514
-1.93004,0.803574,-0.264846,89.125,-116.125,204.438,2.14697,-0.536133,0.187988,-2,2,0,-1,-5,-4,-1,4,13531
-1.90626,0.872479,-0.243717,22.9375,-105.313,171.5,1.51074,-0.41748,0.126953,-4,-1,0,6,-39,-10,-11,-3,13548
-1.88433,0.923767,-0.212272,-7.6875,-100.125,121.313,1.77051,-0.423828,-0.0283203,-3,-1,-5,-8,-37,3,11,-9,13565
-1.88433,0.923767,-0.212272,-7.6875,-100.125,121.313,1.77051,-0.423828,-0.0283203,-6,-3,-3,-6,0,-11,7,2,13582
-1.84994,0.971837,-0.172185,5.1875,-104.5,112.625,1.84131,-0.186523,0.0161133,3,-1,-2,-4,-3,-1,0,-6,13599
-1.78266,1.01759,-0.11934,65.0625,-113.625,119.313,1.41797,0.00390625,0.0800781,-4,-3,-1,-3,-12,1,-3,6,13616
-1.68201,1.06135,-0.0459443,105.875,-124.75,110.25,0.993164,0.296875,0.111328,-3,0,-3,-1,-5,5,-8,1,13633
-1.5605,1.09538,0.0441455,120.313,-124.688,86.4375,0.575684,0.571289,0.125977,-5,0,-7,-6,17,7,-3,3,13650
-1.43894,1.11493,0.141203,98.125,-118,57,0.286133,0.648438,0.152344,5,0,5,0,0,-1,-8,7,13667
-1.31172,1.12907,0.250546,65.9375,-99.375,25.1875,0.188477,0.754883,0.390137,3,4,0,1,-3,5,2,3,13685
-1.31172,1.12907,0.250546,65.9375,-99.375,25.1875,0.188477,0.754883,0.390137,-1,-4,-5,-2,6,0,0,-6,13702
-1.1958,1.13221,0.349545,52,-74.5625,-0.125,0.00878906,0.750977,0.595703,4,0,-1,5,1,-4,6,-9,13719
-1.01238,1.1035,0.485947,11.625,8.8125,-66.9375,-0.101074,0.643066,0.772949,-10,-4,6,9,7,-3,-17,13,13769
-1.02426,1.0899,0.467702,-17.875,43.4375,-88.375,0.0551758,0.728027,0.694336,0,-5,-12,-28,3,2,29,-6,13786
-1.02426,1.0899,0.467702,-17.875,43.4375,-88.375,0.0551758,0.728027,0.694336,10,1,14,25,9,5,-11,5,13803
-1.11593,1.06833,0.390133,-73.3125,71.0625,-112.625,0.280273,0.69873,0.512695,-8,3,-16,-24,-6,-8,-27,19,13821
-1.2679,1.02875,0.275254,-152.813,117.688,-161.563,1.35156,0.455078,0.221191,-13,-4,-2,6,2,3,-4,-4,13837
-1.45756,0.959393,0.130617,-195.875,180.313,-241,3.28223,-0.213867,-0.102539,-19,0,-16,-21,9,0,-20,18,13854
-1.63232,0.899551,0.0049376,-211.938,211.125,-177.125,4.12305,-1.00244,0.183105,6,1,5,-11,-7,-1,-2,1,13871
-1.75701,0.842221,-0.10712,-111.563,225.563,-137.188,3.6626,-1.56738,-0.450684,-1,-1,-8,-2,-9,-3,17,-13,13887
-1.84445,0.791454,-0.180619,-97.1875,173.438,-108.75,2.77832,-1.28613,-0.496094,-8,1,6,30,-5,-6,-19,5,13904
-1.84445,0.791454,-0.180619,-97.1875,173.438,-108.75,2.77832,-1.28613,-0.496094,7,0,7,7,9,-3,2,-6,13921
-1.89937,0.759416,-0.225026,-68.375,114,-60.875,2.26172,-0.973145,-0.489746,-4,2,4,4,7,-2,-3,-1,13937
-1.96495,0.737479,-0.256936,-125.313,85,-35.1875,1.75439,-0.490234,-0.385742,4,1,0,-4,-4,2,7,17,13955
-1.96495,0.737479,-0.256936,-125.313,85,-35.1875,1.75439,-0.490234,-0.385742,-2,-1,0,3,-9,-7,-2,1,13972
-2.12803,0.700973,-0.315792,-170.375,75.6875,5.25,1.05518,-0.640625,-0.525391,8,0,2,7,1,-5,-1,-7,13989
-2.18969,0.684497,-0.344282,-123.5,68.5,9.1875,0.608398,-0.616211,-0.514648,-4,0,1,6,5,2,1,-23,14006
-2.18969,0.684497,-0.344282,-123.5,68.5,9.1875,0.608398,-0.616211,-0.514648,-1,-1,-1,-1,1,3,-10,-2,14023
-2.26609,0.687703,-0.383967,5.4375,-26.8125,35.5625,-0.403809,-0.246582,-0.687988,-7,2,4,3,1,-4,-11,-18,14079
-2.26448,0.695743,-0.388815,40.1875,-27.75,15.1875,-0.563965,-0.310547,-0.90625,15,-1,0,-14,-6,0,21,3,14096
-2.26072,0.694291,-0.394571,53.6875,-21.75,3.8125,-0.535645,-0.482422,-1.16406,10,-3,-1,-7,5,-3,8,-7,14112
-2.25908,0.687142,-0.406939,60.0625,-13,16.125,-0.148438,-0.476563,-1.16895,-14,-2,1,-5,0,-6,-23,11,14129
-2.25908,0.687142,-0.406939,60.0625,-13,16.125,-0.148438,-0.476563,-1.16895,-3,-4,-11,3,4,1,-16,-2,14145
-2.25081,0.685794,-0.413641,66.5625,-39,30.8125,0.107422,-0.463379,-1.10889,6,2,12,-4,-5,9,10,0,14162
-2.23079,0.700923,-0.402716,51.0625,-88.25,54.625,0.126465,-0.671875,-0.844727,34,-5,-8,-15,-3,0,52,-14,14179
-2.19656,0.728243,-0.37591,46.4375,-107,47.5625,0.807129,-0.981934,-0.635254,-10,2,8,-4,16,2,-30,20,14196
-2.1426,0.751916,-0.340304,86,-100.375,13.1875,2.45752,-1.33545,-0.410156,-21,-5,-15,-4,-3,2,-28,10,14213
-2.06312,0.816278,-0.305233,156.688,-155.25,123,2.44873,-1.87305,0.0727539,21,-4,-17,-18,-18,-1,25,-15,14229
-1.91966,0.89739,-0.234925,259.063,-215.375,158.063,2.80273,-1.6543,0.347656,-4,1,4,0,1,-3,-5,-4,14247
-1.91966,0.89739,-0.234925,259.063,-215.375,158.063,2.80273,-1.6543,0.347656,-4,0,3,13,14,-3,-11,0,14264
-1.81269,0.955479,-0.166248,148.75,-161.75,125.125,2.55078,-1.06104,0.397949,-4,0,3,13,14,-3,-11,0,14282
-1.76244,1.00188,-0.121526,37.5,-98.625,114.313,2.15283,-0.69873,0.305664,-10,-4,-5,-3,-2,-6,-5,0,14299
-1.72342,1.04024,-0.0774957,4.5,-83.4375,96.75,1.89941,-0.916016,0.172852,-2,-3,-7,-1,9,2,11,-1,14316
-1.67898,1.07704,-0.0301575,9.125,-79.8125,95.875,1.52344,-0.40332,0.0791016,-1,0,1,8,3,-4,-1,-10,14334
-1.53146,1.11962,0.105477,41.375,-84.25,87.5625,0.900391,0.100098,0.0727539,-1,-2,-3,-4,-6,-2,-8,3,14386
-1.44552,1.14415,0.181129,46,-78.75,76.875,0.649414,0.310059,0.0810547,2,5,5,7,-7,2,0,2,14402
-1.34865,1.16734,0.268044,43.375,-76.5,65.875,0.384766,0.433594,0.138184,-14,-4,-3,4,-6,-1,3,2,14420
-1.23838,1.18482,0.367961,42.75,-76.625,50.125,0.167969,0.504883,0.221191,4,1,-3,-2,-6,-1,-5,-1,14437
-1.12802,1.19524,0.464352,46.75,-65.3125,29.8125,-0.0166016,0.571289,0.289551,-12,-1,4,0,-5,4,-6,7,14455
-1.02117,1.19879,0.558877,37.1875,-57.3125,6.1875,-0.0966797,0.734375,0.405273,-1,-2,-5,-2,-7,-3,3,-3,14472
-0.932264,1.19501,0.638363,19.5625,-44.0625,-22.9375,-0.210449,0.879395,0.527344,8,-1,3,8,0,-2,-10,-5,14489
-0.932264,1.19501,0.638363,19.5625,-44.0625,-22.9375,-0.210449,0.879395,0.527344,-4,-1,-1,-1,-5,-9,13,-2,14506
-0.950459,1.15639,0.622718,-44.9375,2.0625,-112.438,-0.0683594,0.883789,0.416992,-1,7,20,22,4,-5,-14,-8,14522
-0.950459,1.15639,0.622718,-44.9375,2.0625,-112.438,-0.0683594,0.883789,0.416992,6,-2,-2,0,-4,-1,-15,19,14539
-1.06489,1.12322,0.53787,-112.5,42.6875,-145.563,0.452148,0.894531,0.390625,-5,-7,-9,5,22,5,-10,2,14556
-1.23698,1.07709,0.407667,-161.563,100.813,-188.625,1.61523,0.635742,0.171875,11,-1,-2,-3,8,-14,2,-11,14573
-1.44565,1.00901,0.253376,-215.125,172.688,-241.063,3.03174,-0.365234,-0.331055,28,4,9,-5,-4,5,10,11,14590
-1.63693,0.930699,0.114531,-219.875,218.5,-230.75,3.18262,-1.1377,0.0722656,-8,-7,-16,-28,-3,-4,14,-24,14607
-1.63693,0.930699,0.114531,-219.875,218.5,-230.75,3.18262,-1.1377,0.0722656,-8,-5,-12,7,-8,-7,-12,-7,14624
-1.76916,0.842204,0.0069986,-139.938,226.813,-225.375,3.58252,-0.731445,-0.275879,-2,0,8,7,0,2,-7,-12,14641
-2.05252,0.541689,-0.173634,-161.688,105.75,-138.875,1.78125,-0.362305,-0.701172,2,0,3,1,-10,-2,0,3,14709
-2.13,0.486644,-0.185699,-200.875,91.0625,-103.375,1.10449,-0.476074,-0.648926,-2,-1,-3,-3,-6,-2,4,1,14726
-2.13,0.486644,-0.185699,-200.875,91.0625,-103.375,1.10449,-0.476074,-0.648926,-5,-2,-2,-1,-5,-4,-6,-1,14742
-2.19021,0.443472,-0.196664,-157.313,82.25,-73.8125,0.693359,-0.617676,-0.502441,-6,-3,-7,-11,-1,5,-1,7,14759
-2.22885,0.400937,-0.206421,-96.5,67.9375,-50.6875,0.311035,-0.574707,-0.496094,-2,0,1,0,-1,3,-6,-2,14777
-2.2477,0.375968,-0.213033,-43.1875,43.625,-29.3125,0.0405273,-0.533203,-0.503906,0,-2,2,5,-2,-9,3,-8,14794
-2.25234,0.360367,-0.21571,-1.5,23.0625,-22.8125,-0.129883,-0.580566,-0.648438,-3,-1,0,0,6,-4,-15,-14,14812
-2.24988,0.354308,-0.213025,19.4375,-1.8125,-18.5,-0.313965,-0.643555,-0.814941,5,-3,-8,-9,-5,1,6,-5,14829
-2.24393,0.352924,-0.210953,35.3125,-8.25,-10.5625,-0.440918,-0.783691,-1.01172,-15,-1,1,4,0,-1,-10,3,14845
-2.24393,0.352924,-0.210953,35.3125,-8.25,-10.5625,-0.440918,-0.783691,-1.01172,1,-1,1,1,8,3,1,1,14862
-2.23869,0.345799,-0.216425,54.625,0.5,2.8125,-0.18457,-0.807129,-1.29102,-12,-2,-2,2,5,-5,3,-4,14880
-2.23177,0.34379,-0.225632,60.5625,-12.0625,37.3125,0.17041,-0.748535,-1.18262,-5,-3,17,24,15,-5,-38,5,14897
-2.21262,0.36201,-0.234824,78.125,-40.375,84.6875,0.181152,-0.766113,-0.838867,-11,-3,-5,3,-11,-5,-11,-9,14914
-2.18792,0.397094,-0.241865,78.125,-55.25,107.625,0.657227,-1.00977,-0.706055,-15,-3,9,-4,-9,5,-19,27,14931
-2.16566,0.440836,-0.243059,65.25,-68.6875,104.625,1.88477,-1.10547,-0.550781,13,-3,11,-2,-10,1,34,-21,14948
-2.11725,0.515079,-0.244941,140.938,-111.125,181.813,2.82422,-0.952637,-0.258789,-34,-7,-21,-10,10,1,-34,20,14966
-1.96129,0.722293,-0.203259,173.938,-175.813,253.125,3.45361,-0.794922,-0.0356445,0,0,-4,14,15,2,-12,-10,15019
-1.92223,0.810888,-0.184059,73.8125,-129.25,221.938,2.70703,-0.490723,-0.0800781,-14,-2,0,11,3,2,-14,-11,15035
-1.88668,0.888971,-0.160735,51.625,-114.875,196.875,2.08105,-0.695801,0.0634766,6,0,-7,-4,-6,-5,3,-2,15052
-1.83275,0.956978,-0.123096,68.375,-117.938,168.25,2.05713,-0.510254,-0.123535,2,0,5,5,0,-13,4,-10,15069
-1.76499,1.02117,-0.0705013,68.5625,-122.125,160.438,1.83252,-0.132813,-0.0712891,-16,0,-5,1,-4,0,-20,5,15085
-1.76499,1.02117,-0.0705013,68.5625,-122.125,160.438,1.83252,-0.132813,-0.0712891,-1,0,-2,-2,-1,-3,-8,1,15102
-1.66332,1.08135,0.00654004,98.8125,-134.375,165.563,1.40967,0.0532227,0.0214844,7,-1,-2,-1,-4,5,6,-3,15119
-1.51934,1.1361,0.118819,123.875,-145.625,157,1.01074,0.255859,0.0400391,0,-2,0,-6,-5,2,0,2,15136
-1.34693,1.17911,0.255364,134.813,-137.063,140.125,0.734375,0.496094,0.043457,3,2,3,-2,3,1,-2,-2,15152
-1.16818,1.20733,0.401468,121.125,-118.813,115.313,0.410645,0.686035,0.133301,-4,-2,1,1,-2,-4,2,-2,15169
-0.976512,1.22996,0.568202,85.6875,-95.375,85.625,0.171875,0.828613,0.243652,5,-5,-5,0,5,-1,2,0,15186
-0.976512,1.22996,0.568202,85.6875,-95.375,85.625,0.171875,0.828613,0.243652,-4,-2,0,1,-5,-6,8,-1,15202
-0.788415,1.23834,0.736257,62.5,-79.3125,55.3125,0.0195313,0.997559,0.425293,-4,-2,0,1,-5,-6,8,-1,15219
-0.623292,1.23657,0.880731,56.4375,-57.375,30.8125,-0.144043,1.02686,0.560547,0,3,-3,2,4,1,3,-3,15236
-0.509992,1.22906,0.976822,35.75,-26.8125,-9.125,-0.256836,1.09961,0.693359,-2,1,10,6,6,5,-4,5,15254
-0.47004,1.22066,0.99925,22.875,6.9375,-67.5625,-0.209473,1.13477,0.647461,-11,-3,-4,10,-1,-8,-32,4,15271
-1.01837,1.15619,0.517579,-167.5,125.563,-239.438,2.34229,0.577148,0.0805664,12,5,17,2,-2,-6,-13,-1,15334
-1.31593,1.0921,0.272908,-219.563,206.813,-286.688,2.90381,-0.794434,-0.0703125,6,6,-11,-9,3,-5,-5,3,15350
-1.53545,1.00913,0.0915569,-177.313,221.375,-272.688,3.48486,-0.936523,0.231445,-19,-3,-16,-8,8,3,-2,0,15368
-1.67575,0.912572,-0.0338134,-107.688,215.688,-268.688,3.83691,-0.78125,-0.240723,16,3,4,8,-21,2,8,17,15386
-1.67575,0.912572,-0.0338134,-107.688,215.688,-268.688,3.83691,-0.78125,-0.240723,0,-1,-3,6,4,-4,-12,-8,15403
-1.7891,0.821404,-0.130114,-113.875,218.188,-229.438,3.43018,-0.649902,-0.462402,-8,-1,0,4,-2,7,-10,5,15420
-1.86917,0.736159,-0.190452,-108.313,181.438,-204.313,2.86182,-0.772949,-0.471191,9,2,0,-3,0,6,-9,-1,15437
-1.94799,0.658552,-0.228034,-156.313,151.563,-182.875,2.16602,-0.335449,-0.360352,-1,-1,-4,2,0,-3,4,2,15455
-2.03113,0.590532,-0.252899,-196.875,132.125,-154.625,1.63721,-0.422363,-0.50293,-1,-1,0,-7,-1,7,-6,3,15472
-2.03113,0.590532,-0.252899,-196.875,132.125,-154.625,1.63721,-0.422363,-0.50293,-1,-2,2,1,9,-2,-1,-24,15490
-2.15882,0.465201,-0.294495,-120.813,117.188,-97.5625,0.676758,-0.71582,-0.523926,-20,-1,-2,-2,1,4,-30,-16,15507
-2.15882,0.465201,-0.294495,-120.813,117.188,-97.5625,0.676758,-0.71582,-0.523926,-1,-2,-3,-1,2,-7,-5,-3,15524
-2.18789,0.407483,-0.311295,-51.0625,94.6875,-70.5625,0.423828,-0.664551,-0.693359,0,-1,2,-1,0,-2,-9,-8,15542
-2.19665,0.373448,-0.324826,4.6875,64.8125,-39.8125,0.0307617,-0.674316,-0.773438,5,-1,-4,-3,0,0,5,3,15558
-2.19186,0.356107,-0.329954,43.5625,27.875,-31.5625,-0.287109,-0.672852,-0.937012,-8,-2,-6,-4,8,-1,-2,6,15575
-2.18442,0.345612,-0.325557,48.6875,-2.25,-36.75,-0.434082,-0.756836,-1.11133,6,-1,1,3,5,2,7,-8,15593
-2.15468,0.331275,-0.324096,59.4375,-36.875,48.125,0.323242,-0.585938,-0.812988,-7,-3,-8,5,9,-8,-4,-11,15650
-2.13912,0.352813,-0.323849,52.375,-59.4375,84.8125,0.369141,-0.558105,-0.50293,1,2,-1,7,-2,-9,2,-11,15667
-2.13912,0.352813,-0.323849,52.375,-59.4375,84.8125,0.369141,-0.558105,-0.50293,1,2,-1,7,-2,-9,2,-11,15683
-2.11945,0.359467,-0.321423,38.8125,-56.3125,88.6875,0.970703,-0.90918,-0.283203,7,4,30,4,-24,-8,-8,-12,15700
-2.09587,0.395059,-0.31693,62.625,-62.6875,81.6875,2.12549,-1.04443,-0.0966797,0,-3,2,9,14,5,10,8,15717
-2.04579,0.462968,-0.310154,135.438,-108.75,162,2.80078,-0.848145,0.0449219,10,-3,-15,-13,-8,-4,7,-3,15734
-1.97908,0.555299,-0.287059,158.813,-165.625,214.688,3.1748,-0.932129,0.185059,-15,-2,7,11,23,4,-29,14,15750
-1.97908,0.555299,-0.287059,158.813,-165.625,214.688,3.1748,-0.932129,0.185059,-1,-2,-2,-5,4,3,9,-7,15767
-1.90322,0.733879,-0.234359,29.4375,-135.063,215.688,2.42432,-0.452148,0.382813,-1,-4,-7,-6,-9,4,7,-1,15784
-1.90322,0.733879,-0.234359,29.4375,-135.063,215.688,2.42432,-0.452148,0.382813,-4,0,4,13,4,-3,-16,5,15800
-1.86821,0.809338,-0.208072,47.6875,-118.625,189.188,2.24561,-0.469238,0.293945,-7,1,3,2,1,-4,-13,-8,15817
-1.82958,0.879372,-0.175323,40.9375,-114.875,175.375,2.22705,-0.25293,0.0268555,-8,-1,2,4,-4,-4,-8,-5,15834
-1.79405,0.949748,-0.13601,12.125,-115,179.875,1.78516,0.0263672,0.0864258,-4,-3,1,1,4,6,3,1,15851
-1.74092,1.01662,-0.0791351,15.9375,-126.563,179.563,1.38574,0.178711,0.115234,3,1,0,-4,-1,0,4,2,15868
-1.74092,1.01662,-0.0791351,15.9375,-126.563,179.563,1.38574,0.178711,0.115234,1,-1,-2,-2,-1,-1,-1,3,15885
-1.65161,1.08177,0.00470532,45.875,-140.75,173.375,0.92041,0.290039,0.138184,-6,0,-2,-3,-2,-3,-5,3,15902
-1.17661,1.20518,0.415717,92.6875,-122.063,111.125,0.214844,0.73291,0.265625,2,-1,0,0,-4,4,18,-7,15962
-1.01303,1.21832,0.557858,82.4375,-102.125,86.3125,0.0317383,0.800293,0.44873,-4,1,-2,-3,-4,-5,-21,3,15979
-0.806476,1.22826,0.737602,79.1875,-77,60.5,-0.197754,1.02734,0.719238,3,-6,7,-1,-1,-5,20,-6,15996
-0.747012,1.2237,0.77299,75.5,-33.375,14.8125,-0.376465,1.18164,0.859375,0,-3,-14,1,1,-1,2,4,16013
-0.685281,1.22264,0.828377,-5.25,1.75,-45.1875,-0.248535,1.23779,0.677246,-9,-5,0,12,4,0,-4,-3,16030
-0.807146,1.2133,0.739672,-117.813,50.1875,-100.125,0.150391,1.14063,0.608398,8,2,0,-6,0,-4,9,-8,16047
-0.807146,1.2133,0.739672,-117.813,50.1875,-100.125,0.150391,1.14063,0.608398,9,-12,-2,-7,2,3,1,2,16065
-1.015,1.19685,0.583589,-183.25,105.375,-145.5,0.549805,0.820801,0.383789,16,5,0,-19,-1,-5,21,-8,16082
-1.278,1.15005,0.375366,-202.625,155.25,-216.875,2.39893,0.391113,-0.10791,-20,9,24,27,4,-2,-52,32,16100
-1.54909,1.0674,0.148521,-194.625,249.313,-278.313,3.02002,-0.78418,-0.15918,-30,-2,-18,-22,3,2,-54,23,16116
-1.7428,0.96611,-0.0126066,-161.438,264.25,-270.688,3.55273,-0.759766,0.012207,6,3,2,12,3,0,8,-19,16133
-1.85018,0.857266,-0.114829,-75.9375,244.75,-263.813,4.11279,-1.05322,-0.551758,14,4,4,4,-2,-1,23,-14,16150
-1.91859,0.762024,-0.185327,-49.5,216.875,-216.688,3.31934,-0.788574,-0.541992,5,2,-1,-3,-16,1,1,3,16168
-1.91859,0.762024,-0.185327,-49.5,216.875,-216.688,3.31934,-0.788574,-0.541992,3,3,2,-2,11,6,-7,1,16186
-1.9592,0.677033,-0.222126,-47.1875,161.625,-198.625,2.55029,-0.637207,-0.679199,-11,0,-1,0,-11,-8,-6,-5,16203
-2.01901,0.60236,-0.237655,-144.563,119.875,-181.188,2.021,-0.046875,-0.473633,1,0,-5,-7,2,6,3,-1,16220
-2.18899,0.478559,-0.262302,-215.125,123.813,-118.375,1.15039,-0.84375,-0.555176,-6,-2,0,-4,-4,-3,-4,0,16267
-2.23726,0.423563,-0.276499,-123.5,113.875,-88.6875,0.691895,-0.927734,-0.490723,1,-1,1,4,6,1,2,-9,16284
-2.25045,0.374041,-0.284915,-30.1875,76.625,-59.6875,0.385742,-0.706543,-0.525391,6,0,0,1,4,0,5,-1,16301
-2.24639,0.350075,-0.288391,21.625,35.0625,-32.1875,0.0507813,-0.535156,-0.556152,-2,0,-3,-2,2,2,12,4,16318
-2.24038,0.343218,-0.28431,28,-3.875,-22.0625,-0.20752,-0.469238,-0.660156,0,0,1,-6,3,-4,6,8,16336
-2.23946,0.34294,-0.275468,15.6875,-25.75,-18.125,-0.308594,-0.552734,-0.85498,1,0,1,3,7,-1,-17,9,16354
-2.23728,0.345629,-0.26948,18.3125,-28.875,0.0625,-0.325684,-0.883789,-1.03174,8,-1,-7,-15,-4,-7,5,-8,16372
-2.23728,0.345629,-0.26948,18.3125,-28.875,0.0625,-0.325684,-0.883789,-1.03174,-24,0,6,16,4,-6,-37,19,16389
-2.23068,0.34529,-0.2936,52.5625,-3.4375,63,0.330078,-0.736816,-1.03662,11,-5,-20,-31,-15,2,30,-30,16406
-2.23068,0.34529,-0.2936,52.5625,-3.4375,63,0.330078,-0.736816,-1.03662,-51,7,13,33,20,-2,-86,43,16423
-2.21256,0.362048,-0.304155,74.625,-37.8125,89.375,0.335938,-0.669922,-0.726563,4,1,5,2,2,7,22,3,16441
-2.19689,0.393466,-0.311065,50.5,-51.625,102.188,0.97998,-0.946289,-0.536621,-13,-2,-7,-11,-19,-14,-2,-11,16458
-2.17845,0.44395,-0.313289,55.1875,-78.875,121.25,2.30029,-1.1123,-0.407227,18,-2,3,-15,-7,2,42,-19,16475
-2.17845,0.44395,-0.313289,55.1875,-78.875,121.25,2.30029,-1.1123,-0.407227,16,-4,-6,-13,-11,2,32,-19,16493
-2.14257,0.533094,-0.313246,103,-142.25,212.375,2.60938,-1.09961,0,5,0,-2,-4,5,3,6,-10,16509
-1.99607,0.752895,-0.269358,152.438,-181.5,252.5,3.08594,-0.828125,0.240234,-3,0,-1,9,3,-3,-15,0,16526
-1.91427,0.929254,-0.233008,70.25,-125.313,210.25,2.08496,-0.460449,0.23584,-8,-1,2,5,-17,-7,1,-9,16585
-1.87136,1.00779,-0.200559,46.1875,-121.125,196.563,2.01172,-0.239746,0.0874023,-7,-2,2,3,7,-1,-9,1,16602
-1.82346,1.08021,-0.154072,22.3125,-121.188,181.188,1.78076,0.0439453,0.0805664,-4,-2,1,-1,2,-1,-1,3,16620
-1.74845,1.14643,-0.0810388,25.9375,-130,172.688,1.29834,0.125488,0.164551,7,-2,-1,-2,6,3,-1,5,16637
-1.62992,1.20401,0.0309665,41.9375,-140.25,151.375,0.82373,0.163086,0.158203,-2,-1,-3,-2,-3,-1,-4,-2,16655
-1.47636,1.24651,0.173605,54.8125,-134.375,121.813,0.60791,0.343262,0.097168,1,-2,-7,-1,-7,-8,-1,-2,16672
-1.47636,1.24651,0.173605,54.8125,-134.375,121.813,0.60791,0.343262,0.097168,-3,-5,-1,-4,-11,3,-3,2,16689
-1.08418,1.29906,0.523401,80.375,-94.6875,69.5625,0.050293,0.775391,0.306641,-2,-1,0,0,7,-1,-2,-2,16706
-1.08418,1.29906,0.523401,80.375,-94.6875,69.5625,0.050293,0.775391,0.306641,-3,-3,0,-1,0,2,-5,1,16723
-0.879694,1.31123,0.70619,63.75,-64.875,36.6875,-0.147461,0.997559,0.468262,-3,-3,0,-1,0,2,-5,1,16741
-0.710697,1.31029,0.862896,27.5625,-42.8125,-1.125,-0.148438,1.1792,0.650391,-3,1,4,-3,0,-6,-15,2,16757
-0.611955,1.30528,0.955152,1.1875,-6.5,-40.5,-0.0961914,1.28223,0.726563,-9,2,4,10,9,0,-4,7,16774
-0.606812,1.29447,0.96011,-26.125,22.4375,-98.625,0.00488281,1.26855,0.751465,7,-3,8,-3,-2,5,1,1,16791
-0.606812,1.29447,0.96011,-26.125,22.4375,-98.625,0.00488281,1.26855,0.751465,20,12,9,8,-33,-13,14,-5,16808
-0.808538,1.27494,0.779258,-87.6875,63.25,-166.938,0.275879,1.26074,0.583008,-13,-2,-3,11,29,-8,-48,28,16825
-1.09805,1.2366,0.539211,-178.563,116.625,-222.125,0.981445,0.911133,0.257324,11,13,8,20,18,6,-12,-7,16842
-1.84156,0.937038,-0.057106,-138.375,268.938,-280,3.80322,-0.96582,-0.0102539,14,-2,7,-11,-8,2,20,-15,16909
-1.92562,0.825964,-0.150588,-34.25,260.313,-250.063,4.08008,-1.08057,-0.832031,-12,-3,-6,-6,-26,1,-4,-3,16926
-1.96218,0.733441,-0.198597,-8,187.625,-211.375,3.25977,-0.75,-0.536133,-1,0,-4,-4,-21,-8,-4,-3,16944
-1.99455,0.658571,-0.218586,-55.9375,125.563,-179.75,2.27002,-0.493164,-0.56543,-10,-1,-1,-8,14,8,-2,4,16961
-2.06388,0.594468,-0.220528,-195.625,85.375,-162.688,1.65137,0.078125,-0.535645,9,2,-3,-2,9,1,2,7,16978
-2.16308,0.541944,-0.222605,-281.25,82,-126.5,1.25342,-0.617676,-0.634277,2,-3,0,-3,6,0,6,-8,16995
-2.24117,0.492575,-0.23423,-210.875,96,-78.4375,0.828613,-0.991211,-0.460938,-8,-3,-2,-6,-2,1,-13,10,17013
-2.28082,0.454192,-0.246234,-101.813,84.1875,-51.125,0.575684,-0.991211,-0.509277,-5,-2,-2,3,0,-2,2,-15,17030
-2.28082,0.454192,-0.246234,-101.813,84.1875,-51.125,0.575684,-0.991211,-0.509277,0,0,3,0,5,1,-3,-5,17048
-2.28344,0.424059,-0.254041,-2.9375,45.8125,-18.5625,0.279297,-0.689941,-0.495117,0,2,0,-3,-4,-2,-4,-9,17065
-2.27341,0.418274,-0.258379,41.3125,6.75,4.5,-0.0629883,-0.45459,-0.538086,-5,-1,0,0,14,3,-9,3,17082
-2.26462,0.425732,-0.25834,41.1875,-18.5,10.5,-0.370605,-0.429688,-0.683105,8,1,-3,0,4,2,14,6,17099
-2.25843,0.434774,-0.256257,33.3125,-30.5625,15.5,-0.421387,-0.666992,-0.914551,0,0,2,8,11,-1,-11,10,17117
-2.25557,0.440107,-0.260611,31.8125,-26.4375,36.5,-0.178711,-0.883301,-1.08301,-11,-9,-7,-6,-6,-2,1,-12,17134
-2.25896,0.448737,-0.277419,36.125,-18.875,72.6875,0.0893555,-0.710938,-1.08496,-23,-4,-2,6,1,0,-2,-7,17151
-2.25896,0.448737,-0.277419,36.125,-18.875,72.6875,0.0893555,-0.710938,-1.08496,5,-1,7,4,-4,5,10,-4,17169
-2.12443,0.638897,-0.306799,133.188,-88.4375,149.438,2.76074,-1.03662,-0.318848,-17,9,-8,-32,-16,-8,-2,4,17232
-2.06984,0.728717,-0.298476,141.188,-145.563,213.25,2.87988,-1.26025,-0.0908203,7,-1,-2,-13,-24,2,8,-4,17248
-2.06984,0.728717,-0.298476,141.188,-145.563,213.25,2.87988,-1.26025,-0.0908203,7,-1,-2,-13,-24,2,8,-4,17265
-1.99353,0.825006,-0.267385,155.938,-179.875,219,3.2959,-1.11328,0.0893555,7,3,4,2,12,4,0,9,17282
-1.95413,0.912261,-0.240177,53.5,-144.188,210.375,2.6167,-0.837891,0.132324,-19,-5,-1,2,-10,-3,-11,0,17299
-1.91012,0.989265,-0.20981,55.375,-125.688,188.188,2.15332,-0.739746,0.225098,7,0,0,6,-17,-3,6,-5,17316
-1.84772,1.05963,-0.165853,71.1875,-123.563,172.375,2.17529,-0.427246,0.104492,-1,-1,-1,3,22,1,-5,-6,17333
-1.84772,1.05963,-0.165853,71.1875,-123.563,172.375,2.17529,-0.427246,0.104492,-12,-6,-5,-1,10,-3,-10,1,17350
-1.6874,1.183,-0.0283439,38.5,-118.5,154.313,1.38477,0.200684,0.00537109,7,-1,2,1,0,-3,4,-4,17366
-1.6874,1.183,-0.0283439,38.5,-118.5,154.313,1.38477,0.200684,0.00537109,0,-3,0,3,-3,-5,0,1,17384
-1.56117,1.23125,0.0926717,36.625,-129.375,131.438,0.771973,0.276367,0.0742188,-2,1,-2,0,-3,-2,0,2,17400
-1.39915,1.26095,0.247481,44.0625,-131.875,94.4375,0.57959,0.3125,0.0498047,-5,-6,-2,-2,-1,-6,-8,2,17417
-1.22119,1.27678,0.409603,65.1875,-118.688,72.75,0.339844,0.479492,0.15332,11,4,-1,-1,-2,0,3,0,17435
-1.03155,1.27852,0.568368,104.688,-110.375,51.8125,0.174316,0.624512,0.337402,2,-3,-6,-7,-2,3,0,-2,17452
-1.03155,1.27852,0.568368,104.688,-110.375,51.8125,0.174316,0.624512,0.337402,-10,0,-2,-5,-6,0,-1,3,17469
-0.76843,1.26874,0.7518,113.188,-40.8125,10.1875,-0.00439453,1.04883,0.653809,-22,-10,1,0,2,-1,-8,3,17486
-0.557602,1.25603,0.90279,43.875,-6.1875,-51.8125,-0.123047,1.05225,0.67334,-26,-15,-10,1,6,3,-12,1,17550
-0.649154,1.23773,0.819532,-41.75,10.8125,-106.25,0.227539,0.916992,0.600586,4,-14,-1,-1,-2,1,19,-1,17566
-0.808668,1.22018,0.693797,-123.563,51.75,-134.75,0.519043,0.850098,0.408203,-9,-6,4,5,13,-1,-12,0,17582
-1.02473,1.19421,0.530955,-185.188,92.25,-162.563,1.18896,0.563965,0.126953,9,-1,-4,-31,-10,9,11,1,17599
-1.27703,1.1459,0.342418,-224.563,136.063,-212.75,3.04199,-0.466309,-0.304199,-40,-15,0,-21,-2,-4,17,1,17616
-1.51881,1.08164,0.156875,-216.375,199.75,-220.5,2.81445,-1.10352,0.0244141,15,21,2,9,11,3,-2,3,17634
-1.6916,1.01554,0.0113309,-133,214.313,-182.25,3.5957,-1.06836,-0.244141,11,2,-2,-4,2,2,16,-23,17651
-1.81668,0.947853,-0.10449,-82.1875,216.688,-156.938,3.3374,-0.911133,-0.637695,-4,-4,-7,1,-22,3,-8,-10,17669
-1.81668,0.947853,-0.10449,-82.1875,216.688,-156.938,3.3374,-0.911133,-0.637695,-1,4,-4,1,-19,2,3,3,17687
-1.89598,0.882043,-0.171114,-76.1875,165,-148,2.82568,-0.756348,-0.703613,4,-1,-4,-1,-9,0,2,4,17704
-1.96253,0.820365,-0.210935,-104.5,132.375,-139,2.16748,-0.541992,-0.619629,-7,1,-3,-1,-5,-8,-8,-10,17721
-2.03046,0.764874,-0.231709,-152.813,103.688,-127.875,1.59961,-0.30127,-0.578125,1,1,-2,-9,7,0,4,5,17738
-2.10784,0.70533,-0.247492,-186.813,96.1875,-114.25,1.26563,-0.442383,-0.639648,3,-4,-1,2,1,-4,6,0,17755
-2.17444,0.655349,-0.261004,-164.813,90.0625,-87.625,0.898438,-0.618164,-0.562988,-4,-3,1,-1,-4,0,-9,-2,17771
-2.21413,0.596628,-0.274501,-87.875,81,-63.5625,0.550293,-0.735352,-0.623047,-3,-2,-1,1,-1,-2,-10,-7,17788
-2.21413,0.596628,-0.274501,-87.875,81,-63.5625,0.550293,-0.735352,-0.623047,0,-2,0,-3,0,-1,-3,-4,17805
-2.23047,0.502514,-0.263528,8.9375,-23.5,-34.625,-0.401855,-0.772461,-1.00293,2,-1,3,3,3,2,7,1,17876
-2.22568,0.492275,-0.257015,20.8125,-22.875,-11.6875,-0.267578,-1.04199,-1.12744,5,-5,-10,-12,-1,3,14,-12,17894
-2.22568,0.492275,-0.257015,20.8125,-22.875,-11.6875,-0.267578,-1.04199,-1.12744,-13,1,6,14,12,-3,-37,-1,17912
-2.19906,0.503377,-0.264696,68.5625,-41.6875,66.6875,0.165527,-0.770508,-0.730469,1,-2,3,-1,0,1,2,4,17929
-2.19906,0.503377,-0.264696,68.5625,-41.6875,66.6875,0.165527,-0.770508,-0.730469,14,-5,-14,-33,-20,-1,39,-10,17946
-2.17923,0.517389,-0.265908,53.3125,-56.4375,88.9375,0.370605,-1.04541,-0.630371,14,-5,-14,-33,-20,-1,39,-10,17964
-2.1744,0.570885,-0.268545,18.0625,-81.9375,129.563,1.69141,-1.19287,-0.515137,-4,3,-8,15,21,-6,-42,25,17981
-2.1558,0.645905,-0.278439,69.5,-100.938,191,2.479,-1.15088,-0.306641,-12,7,4,17,25,-6,-27,6,17998
-2.09754,0.741946,-0.266993,145.938,-166.938,220.75,2.99854,-1.18311,-0.347168,1,1,10,1,-13,-1,-16,13,18015
-2.09754,0.741946,-0.266993,145.938,-166.938,220.75,2.99854,-1.18311,-0.347168,12,-5,-5,-3,-30,-6,31,-22,18032
-1.97148,0.935215,-0.215333,117.188,-152.875,212.625,2.55225,-0.741211,-0.0522461,0,1,8,-3,-10,3,1,29,18048
-1.97148,0.935215,-0.215333,117.188,-152.875,212.625,2.55225,-0.741211,-0.0522461,-29,1,14,48,5,-3,-51,-5,18066
-1.90882,1.01326,-0.182871,102.313,-129.625,189.875,2.13135,-0.661621,0.0551758,-2,-3,-10,0,-3,2,7,-2,18084
-1.82011,1.08788,-0.13028,124,-133.75,182.188,2.06299,-0.448242,-0.059082,-4,1,-2,-16,2,1,15,-1,18101
-1.71745,1.15019,-0.0493776,85.3125,-134.25,155.188,1.92383,-0.234863,-0.134766,-1,-1,-4,-7,0,1,6,-2,18119
-1.58646,1.20092,0.0662315,69.6875,-139.125,134.25,1.61475,-0.0595703,0.0634766,-3,5,0,8,0,-6,-17,11,18136
-0.997611,1.2677,0.581752,110.188,-128.75,91.3125,0.403809,0.30957,0.247559,1,0,1,-2,1,2,-3,-1,18197
-0.812181,1.26549,0.73787,102.5,-102.625,67.4375,0.23291,0.624512,0.382324,-1,-3,-2,-3,1,-7,-3,-7,18215
-0.611536,1.26368,0.90534,92.75,-61,38.6875,0.106445,1.06055,0.524902,-11,-8,-8,-6,-11,-6,8,-4,18231
-0.611536,1.26368,0.90534,92.75,-61,38.6875,0.106445,1.06055,0.524902,23,11,8,-1,1,1,6,-7,18249
-0.566081,1.25944,0.929178,65.25,-21.625,10.625,-0.108398,1.45654,0.638184,-22,-5,-1,6,9,-3,-11,-1,18265
-0.594136,1.2513,0.89367,15.6875,-2.0625,-39.0625,-0.244629,1.57568,0.626465,6,0,2,-16,-8,-8,5,0,18282
-0.671865,1.23505,0.819171,-27.6875,12.125,-103.813,-0.161621,1.22998,0.612305,3,-12,1,-4,8,-2,16,-11,18300
-0.81328,1.21154,0.697249,-83.6875,40.375,-147.688,0.152344,0.983398,0.527344,-5,-11,-16,-24,-7,-1,28,-8,18317
-1.00601,1.17824,0.54625,-153.5,73.5625,-183.625,0.557129,0.849121,0.333008,8,0,12,-15,1,5,7,-7,18333
-1.25124,1.12448,0.364155,-226.25,126.438,-229.875,1.70313,0.648438,0.0102539,-7,-10,1,-16,-2,3,14,-8,18350
-1.25124,1.12448,0.364155,-226.25,126.438,-229.875,1.70313,0.648438,0.0102539,17,5,11,-16,11,-3,5,4,18367
-1.51525,1.03954,0.173266,-273.5,207.313,-286.188,3.22412,-0.31543,-0.311523,2,16,13,0,15,-9,-5,11,18384
-1.71727,0.928375,0.0234327,-220.688,252.438,-307.5,3.49658,-1.01904,0.0400391,-7,-1,-5,8,-19,-1,12,-5,18401
-1.8327,0.815504,-0.0864788,-88.875,264.25,-275.625,3.64355,-0.960449,-0.103516,17,-1,5,15,-7,1,-6,-12,18418
-1.90335,0.707032,-0.170084,-37.1875,257.063,-246.5,3.46094,-0.73291,-0.275879,12,0,2,9,-10,11,17,14,18435
-1.90335,0.707032,-0.170084,-37.1875,257.063,-246.5,3.46094,-0.73291,-0.275879,-6,-4,-6,-4,-9,6,-7,-1,18452
-2.12008,0.391397,-0.272155,-241.875,100.063,-146.5,1.24365,-0.523926,-0.651367,10,-3,-3,-2,6,3,16,18,18523
-2.19711,0.33711,-0.280955,-211.125,96.5,-102.625,0.698242,-0.714844,-0.5625,-5,-3,-1,0,1,-1,-9,-2,18541
-2.24725,0.303241,-0.289724,-135.938,69.9375,-52.6875,0.427734,-0.889648,-0.687988,-3,0,-1,-3,1,1,2,-1,18558
-2.24725,0.303241,-0.289724,-135.938,69.9375,-52.6875,0.427734,-0.889648,-0.687988,-3,-1,0,-3,-1,-3,-9,3,18575
-2.25663,0.279032,-0.301855,34.375,2.875,12.875,-0.160156,-0.959473,-0.750488,-12,-1,1,0,5,0,-20,-1,18592
-2.25663,0.279032,-0.301855,34.375,2.875,12.875,-0.160156,-0.959473,-0.750488,8,0,-5,-3,1,2,14,12,18610
-2.23251,0.288614,-0.301996,83.4375,-25.5625,25.75,-0.194336,-0.729492,-0.836914,-9,-2,-4,-7,-3,-2,-9,-14,18627
-2.20811,0.299572,-0.297479,91.5625,-43.875,24.6875,-0.143066,-0.714355,-0.995117,1,-1,-8,-10,-7,-3,21,-10,18644
-2.19056,0.315406,-0.295807,75.25,-53.0625,50.75,-0.0332031,-0.84668,-1.08545,-13,0,0,4,3,-5,-34,5,18662
-2.18133,0.336437,-0.304609,61.0625,-49.125,94.9375,0.250977,-0.793945,-1.04102,3,-2,-5,-4,-1,0,4,-7,18680
-2.1697,0.379724,-0.316189,49.375,-52.9375,128.188,0.335938,-0.634277,-0.753418,-7,-1,-3,-10,-15,1,-12,24,18698
-2.16647,0.422225,-0.329361,25.5625,-50.6875,135.375,0.725098,-0.781738,-0.64502,-1,5,-1,3,14,-5,-28,15,18716
-2.16794,0.476683,-0.339097,7.9375,-66.9375,142.875,1.45557,-1.09814,-0.453613,-24,-2,-3,6,33,-3,-55,20,18733
-2.16794,0.476683,-0.339097,7.9375,-66.9375,142.875,1.45557,-1.09814,-0.453613,-16,-2,8,19,12,-13,-29,-15,18751
-2.08795,0.658336,-0.326722,139.313,-182.438,233.625,3.14648,-1.13818,-0.0996094,10,0,-3,10,26,7,-30,20,18768
-2.08795,0.658336,-0.326722,139.313,-182.438,233.625,3.14648,-1.13818,-0.0996094,-6,-2,-12,-6,-23,-3,-9,-3,18785
-1.73941,1.04686,-0.131169,64.875,-133.5,202.625,1.96338,-0.438965,0.195801,2,1,3,-5,10,5,1,-6,18852
-1.73941,1.04686,-0.131169,64.875,-133.5,202.625,1.96338,-0.438965,0.195801,-1,-1,4,4,7,-10,2,-4,18869
-1.66483,1.11681,-0.0588962,30.6875,-122.375,185.875,2.04932,-0.197266,0.0161133,-5,-3,-2,-3,17,4,2,-5,18887
-1.56117,1.17951,0.041488,34.375,-125.438,174.438,1.66357,0.0947266,0.078125,-1,0,0,-1,-5,4,-6,-4,18905
-1.40675,1.22882,0.186908,53.25,-134.313,156.25,1.15869,0.192383,0.0922852,6,1,-3,-6,-22,-15,7,-10,18922
-1.21242,1.26232,0.369423,59.125,-133.125,133.438,0.678223,0.345703,0.138672,1,-2,-4,-3,-1,1,-2,-1,18939
-1.00795,1.27591,0.556768,71.9375,-121.875,99.0625,0.364746,0.472168,0.163574,9,4,5,2,8,3,9,-2,18956
-0.778358,1.28319,0.762715,78.3125,-95.4375,72.5625,0.153809,0.791016,0.317871,-6,-3,-4,-3,5,-4,-2,-3,18974
-0.778358,1.28319,0.762715,78.3125,-95.4375,72.5625,0.153809,0.791016,0.317871,1,-1,-1,3,4,-1,0,-1,18992
-0.583979,1.28099,0.932966,66.8125,-61.8125,37.375,-0.0600586,1.01318,0.462402,-3,-2,1,-1,3,2,4,-6,19008
-0.439476,1.27528,1.06064,37.75,-27.8125,4.5,-0.150879,1.18018,0.612305,4,-6,-6,-7,0,7,1,-2,19025
-0.357355,1.27011,1.13254,9.75,3.0625,-32.625,-0.102539,1.24805,0.633789,1,4,7,-6,-1,-5,-5,-1,19043
-0.341994,1.26452,1.14457,-17.1875,23.5625,-76.4375,0.0263672,1.23242,0.630859,19,-2,-9,0,-5,-5,8,-15,19061
-0.491578,1.26165,1.00607,-57.1875,51.375,-133.438,0.25293,1.26172,0.580078,5,0,3,-7,4,-5,-25,7,19078
-0.729724,1.25179,0.804716,-139.75,86.1875,-179.375,0.405273,1.15771,0.336914,-7,-3,-7,26,15,4,-2,0,19095
-0.729724,1.25179,0.804716,-139.75,86.1875,-179.375,0.405273,1.15771,0.336914,-34,-2,-10,-2,11,-3,-49,18,19112
-1.85764,0.920469,-0.113463,-91.5625,270,-256.688,4.03613,-1.24756,-0.199707,7,2,-1,1,-6,1,14,-18,19178
-1.92854,0.818384,-0.198631,-16.8125,242.438,-227.438,3.29102,-1.104,-0.34082,-15,0,-1,-13,-28,1,-21,7,19195
-1.95491,0.73508,-0.249276,26.4375,183,-185.188,2.76123,-0.707031,-0.341309,-18,-1,-3,-4,-10,3,-13,4,19212
-1.95491,0.73508,-0.249276,26.4375,183,-185.188,2.76123,-0.707031,-0.341309,5,3,1,-2,-15,-18,7,-13,19229
-1.98125,0.661379,-0.276111,-26.0625,136,-171.938,2.30371,-0.0800781,-0.296387,2,3,2,-3,1,5,0,10,19246
-2.05509,0.591217,-0.288449,-191.063,112.875,-169.125,1.96826,0.0722656,-0.449707,-2,0,-1,0,-3,-3,1,-6,19263
-2.15095,0.524483,-0.29603,-263.5,112.938,-155.313,1.34082,-0.51123,-0.483887,-7,-1,-5,0,1,0,-5,-1,19280
-2.23508,0.459345,-0.302382,-231.938,110.063,-126.5,0.841797,-0.705566,-0.591309,-8,-3,0,1,-7,-2,-4,-14,19298
-2.28667,0.413634,-0.304823,-146.063,81.0625,-87.125,0.371094,-0.756348,-0.549805,0,-1,-2,-1,-4,0,0,3,19315
-2.30165,0.37841,-0.305988,-44.75,49.625,-49.9375,0.0473633,-0.818848,-0.669434,-1,-1,2,-2,11,-4,1,2,19331
-2.30165,0.37841,-0.305988,-44.75,49.625,-49.9375,0.0473633,-0.818848,-0.669434,4,-1,0,0,3,-2,3,6,19349
-2.29053,0.365162,-0.30723,36.9375,15.625,-15.0625,-0.177734,-0.794434,-0.773926,2,0,-3,-5,10,-2,-1,3,19366
-2.26013,0.365538,-0.305821,99.8125,-13,1,-0.318359,-0.758789,-0.902832,2,0,-1,1,-4,1,9,0,19382
-2.21481,0.369087,-0.295614,124.938,-31.1875,-7.8125,-0.313477,-0.78125,-1.03369,-5,-3,0,3,7,0,-3,-4,19400
-2.17696,0.375613,-0.285341,106.25,-41.875,5.25,0.106445,-0.799805,-1.18213,-9,-2,1,3,0,-7,-15,3,19416
-2.16343,0.375598,-0.293601,88.1875,-27.4375,50.6875,0.461914,-0.537598,-1.11328,3,-2,6,0,0,7,12,-5,19433
-2.15251,0.463339,-0.339216,20.8125,-43.6875,136.375,1.70605,-1.11328,-0.17334,-18,-2,3,8,-9,-7,2,-4,19498
-2.11581,0.527813,-0.340524,106.563,-95.75,158,2.62695,-0.968262,-0.0205078,6,6,-2,2,2,-2,-8,-2,19514
-2.11581,0.527813,-0.340524,106.563,-95.75,158,2.62695,-0.968262,-0.0205078,23,-4,-5,7,-22,-15,39,-16,19532
-1.95641,0.719297,-0.304238,215.875,-171.563,245.625,3.46582,-0.86084,0.163086,-9,1,8,-3,7,4,5,9,19549
-1.95641,0.719297,-0.304238,215.875,-171.563,245.625,3.46582,-0.86084,0.163086,-8,2,8,29,17,4,-25,-24,19566
-1.88477,0.821745,-0.276907,150.875,-153.375,256.5,2.71143,-0.71875,0.306641,15,0,2,0,10,2,-1,17,19583
-1.81432,0.917001,-0.244706,130.875,-132.625,246.313,2.07227,-0.177734,0.17627,-6,-1,-3,2,-18,-2,-6,-18,19600
-1.73794,1.00774,-0.194907,101.688,-133.125,238.188,2.14502,-0.217285,0.00537109,-1,-2,-2,-8,-7,0,7,0,19617
-1.66003,1.09593,-0.12792,56.6875,-126.625,238.188,2.0459,0.0712891,-0.065918,11,-1,1,-2,0,-3,11,-11,19634
-1.66003,1.09593,-0.12792,56.6875,-126.625,238.188,2.0459,0.0712891,-0.065918,-9,-1,2,7,8,-3,-16,7,19651
-1.55221,1.17581,-0.0278265,48.75,-128.875,223.688,1.61768,0.266113,0.0615234,-16,-4,-9,-6,-11,0,-1,-5,19667
-1.38267,1.23893,0.119151,90.5625,-126.563,198.125,1.23633,0.258301,0.168457,-6,-6,-7,-8,-3,-1,4,0,19684
-1.14563,1.28563,0.319009,131.938,-121.375,178.313,0.855957,0.293457,0.132324,4,-1,-2,3,5,2,-7,-3,19700
-0.867756,1.31412,0.56391,117.688,-110.188,162.25,0.48584,0.476074,0.222656,5,2,2,-1,-22,-9,10,-4,19717
-0.600853,1.32332,0.807965,85.375,-93.875,135.125,0.203125,0.71875,0.189453,-3,-1,-1,0,4,3,-3,0,19734
-0.336154,1.31766,1.06276,34.5625,-75.4375,95.875,0.0791016,0.880859,0.28125,2,-3,1,-4,10,0,6,-8,19751
0.0782949,1.2492,1.47783,-14.1875,-21.5,-27.75,-0.147461,1.35889,0.613281,2,-2,-6,-2,1,6,-1,0,19819
-0.0279215,1.25051,1.38583,-62.4375,10.3125,-106.5,0.0761719,1.41602,0.470703,10,1,9,32,9,12,-6,-6,19835
-0.21567,1.2631,1.22721,-112.125,58.9375,-156.625,0.216797,1.31592,0.374512,3,-5,-9,-9,8,-4,-13,5,19852
-0.21567,1.2631,1.22721,-112.125,58.9375,-156.625,0.216797,1.31592,0.374512,-7,4,2,27,2,0,-13,-4,19870
-0.512225,1.26781,0.972448,-157.438,95.25,-212.938,0.833008,0.914063,0.0654297,-33,-12,-14,-11,17,2,-39,26,19887
-0.910502,1.2468,0.632443,-214,150.75,-265.438,3.78174,-0.730469,-0.557129,-35,0,0,18,45,-11,-37,13,19904
-1.28462,1.1893,0.303082,-184.938,215.375,-293.625,3.36426,-1.20166,-0.289063,-6,5,8,0,16,0,15,-41,19920
-1.51504,1.10149,0.0974233,-122.438,196.875,-288.813,4.00879,-1.08496,-0.272949,19,-4,3,-14,-12,-5,8,2,19938
-1.65635,1.00837,-0.029198,-89.3125,182.813,-263.438,3.41357,-0.871094,-0.60498,-2,-6,-14,-19,-33,2,6,0,19955
-1.75616,0.920395,-0.0956967,-129.25,141.75,-235.125,2.85693,-1.03857,-0.435547,7,1,0,15,-32,0,-3,-2,19972
-1.75616,0.920395,-0.0956967,-129.25,141.75,-235.125,2.85693,-1.03857,-0.435547,-31,0,-9,-2,-16,-2,-56,15,19990
-1.83824,0.837265,-0.135498,-147.313,124.5,-216.25,2.26807,-0.269531,-0.407227,-6,-1,1,1,-4,2,-13,3,20007
-1.94312,0.757155,-0.157374,-256.313,113.813,-204,1.92041,-0.342285,-0.611816,14,-3,3,-5,-14,-13,16,-4,20024
-2.06109,0.684415,-0.18154,-292.375,134.563,-167.625,1.24902,-0.936523,-0.47998,-8,-5,0,2,-15,-1,-3,1,20041
-2.14614,0.618988,-0.208731,-197.563,137.688,-110.5,0.991211,-0.76123,-0.397949,6,-4,0,0,15,7,4,0,20058
-2.18198,0.563875,-0.223081,-79.125,107,-98.25,0.674805,-0.623535,-0.473633,-2,0,2,-2,7,-5,-6,13,20075
-2.21689,0.473309,-0.220581,-13.1875,-5.875,-39.3125,-0.399414,-0.685059,-0.924316,17,0,-3,2,8,2,24,16,20133
-2.21591,0.458806,-0.215053,18.0625,-7.9375,-31.6875,-0.337402,-0.861816,-1.0957,-5,-2,-2,-9,3,2,-3,3,20150
-2.21591,0.458806,-0.215053,18.0625,-7.9375,-31.6875,-0.337402,-0.861816,-1.0957,-2,-3,-4,-9,-11,-9,-4,7,20167
-2.20746,0.441936,-0.217283,54,2.1875,-15.375,-0.228027,-1.0542,-1.29932,10,-2,2,5,3,1,11,-8,20184
-2.19298,0.430115,-0.228957,84.3125,1.25,27.0625,0.0698242,-1.13184,-1.35449,-12,0,7,9,-2,-8,-32,24,20201
-2.17273,0.441738,-0.23623,85.1875,-44,80.6875,0.309082,-0.878418,-0.951172,-4,14,3,17,17,-4,-59,27,20218
-2.15016,0.482552,-0.240279,69.9375,-66.1875,117.188,0.657227,-0.762695,-0.503418,23,-8,-8,-15,-4,-12,63,-50,20235
-2.11986,0.534615,-0.252086,103.313,-54.8125,141.75,1.69727,-0.992676,-0.275879,-8,-6,-14,-30,5,38,-8,32,20253
-2.11986,0.534615,-0.252086,103.313,-54.8125,141.75,1.69727,-0.992676,-0.275879,-1,-2,-3,-13,62,18,-11,-4,20270
-2.06228,0.614764,-0.265505,186.25,-86.375,215.25,2.32666,-1.02588,0.0600586,14,-1,-9,-3,29,60,40,0,20286
-1.97682,0.723292,-0.256166,228,-153.813,271.688,3.24951,-0.656738,-0.0649414,20,-2,-3,-29,-38,-10,44,-25,20303
-1.94229,0.822291,-0.252314,91.125,-115.125,259.438,3.24414,-0.280762,-0.214844,-18,-5,-7,6,-29,-7,-7,4,20321
-1.93166,0.908175,-0.239358,2.25,-110.688,221.25,2.48975,-0.811035,0.14502,-9,-4,-1,-3,-18,-3,-13,3,20339
-1.88626,0.988194,-0.210645,63.4375,-121.438,200.313,2.25488,-1.17822,0.0078125,-4,0,2,6,-9,-11,-1,1,20356
-1.80163,1.06575,-0.16604,132.5,-123.75,196.625,2.2627,-0.70166,-0.0356445,10,-3,-1,-5,11,-1,14,-11,20373
-1.68429,1.13598,-0.0909498,144.563,-130.563,181,2.05713,0.00488281,-0.0742188,14,-1,1,-11,-12,4,18,-7,20390
-1.37582,1.2427,0.170855,75.25,-131.563,154.688,1.2627,0.178223,0.0585938,18,2,7,8,6,-15,15,-15,20447
-1.16196,1.28115,0.365477,81.125,-124.813,155,0.978027,0.236328,0.161621,-5,-1,-3,-7,-7,-7,-2,-6,20464
-0.888401,1.30313,0.606362,118.375,-123.938,150.375,0.680176,0.239258,0.217285,3,-2,0,3,2,-2,6,0,20481
-0.610774,1.30778,0.845491,131.5,-107.188,135.5,0.399414,0.379395,0.229004,-1,2,-2,4,-21,-3,-7,2,20498
-0.380014,1.30316,1.04341,110,-76.4375,113.563,0.177734,0.697266,0.286133,1,1,10,5,10,-3,-11,3,20514
-0.380014,1.30316,1.04341,110,-76.4375,113.563,0.177734,0.697266,0.286133,1,1,10,5,10,-3,-11,3,20530
-0.115229,1.29147,1.28129,80,-47.1875,94.3125,-0.0166016,1.14453,0.453613,-14,-7,-4,-11,11,8,-2,-3,20547
-0.0185856,1.28212,1.36533,45.75,-31.5,65.3125,-0.274414,1.40283,0.618164,7,4,3,-4,18,0,-6,0,20564
-0.0098895,1.27625,1.3773,-8.125,-16.8125,9.75,-0.343262,1.4375,0.611328,8,2,3,1,9,-6,-6,4,20581
-0.123596,1.28086,1.28794,-79.625,17.25,-73.25,0.000976563,1.43457,0.489258,32,-4,6,-27,-13,-7,44,-20,20598
-0.299634,1.28869,1.14653,-122.75,54.8125,-128.125,0.288574,1.30957,0.46582,-9,7,3,13,12,4,-5,8,20615
-0.57445,1.28927,0.908642,-136.313,87.0625,-181.5,0.791504,0.769531,0.115234,21,5,9,-19,-13,3,6,-15,20632
-0.57445,1.28927,0.908642,-136.313,87.0625,-181.5,0.791504,0.769531,0.115234,-13,-9,-6,4,7,2,-35,15,20649
-0.948366,1.26604,0.58783,-190.313,135.063,-237.25,3.71094,-0.196289,-0.35791,-16,0,-12,30,27,-17,-23,5,20666
-1.33088,1.19618,0.248737,-179.375,210.813,-314.5,3.07959,-0.730957,-0.284668,-27,-3,-10,-24,-21,-12,1,-3,20683
-1.60867,1.0904,0.0203774,-199.75,239.75,-327.375,3.99805,-0.983398,-0.15918,10,-4,-6,17,-10,3,-4,-3,20701
-2.04812,0.726036,-0.276034,-171.5,253.563,-267.063,2.88184,-0.552246,-0.240723,3,0,0,-11,-20,3,-7,8,20770
-2.13555,0.610662,-0.307657,-194.438,226.625,-251.563,2.18799,-0.46582,-0.426758,-10,-1,-2,4,-12,-8,-4,-15,20787
-2.22795,0.526031,-0.320136,-245.625,164.063,-181.438,1.64307,-0.295898,-0.626953,-5,0,1,1,4,-13,-12,-15,20805
-2.30454,0.461189,-0.334961,-199.438,147.813,-118.875,1.20557,-0.551758,-0.762695,0,-3,-3,4,7,15,11,16,20822
-2.3415,0.405253,-0.351243,-86.4375,126.375,-73.0625,0.661133,-1.07031,-1.00439,1,-2,-2,-2,5,1,13,-12,20839
-2.33254,0.36165,-0.364251,44.625,75,-30.9375,0.191406,-1.04883,-1.09766,0,-1,-1,-3,12,5,4,4,20856
-2.33254,0.36165,-0.364251,44.625,75,-30.9375,0.191406,-1.04883,-1.09766,0,-1,-2,-5,12,-7,0,-6,20874
-2.28439,0.350373,-0.365385,143.563,17.75,-18,-0.0678711,-0.853516,-1.12012,2,-1,2,3,-10,-3,1,-8,20890
-2.22956,0.347652,-0.345968,147.563,-40.6875,-37.9375,-0.27832,-0.781738,-1.33496,-8,-3,2,6,-7,-2,-8,-14,20908
-2.21262,0.346726,-0.33188,77.4375,-52.5625,-19.4375,-0.320313,-0.946777,-1.50391,3,-2,-4,1,0,-3,-1,-17,20925
-2.21189,0.354045,-0.336742,34.375,-26.5,40.4375,-0.141602,-0.946777,-1.21826,1,-2,-3,-10,-10,-7,-3,-24,20942
-2.21433,0.387189,-0.350887,11.3125,-33.875,106.438,0.195313,-0.810547,-0.864746,16,-2,-1,-2,-5,2,27,-20,20960
-2.2195,0.435309,-0.363248,-1.9375,-63.8125,139.125,0.188477,-0.971191,-0.648438,10,-3,-7,-8,7,7,15,-2,20977
-2.2195,0.435309,-0.363248,-1.9375,-63.8125,139.125,0.188477,-0.971191,-0.648438,-21,-4,-8,11,8,-11,-30,9,20994
-2.21902,0.489035,-0.368858,3.9375,-90.25,146.313,0.562012,-1.02783,-0.397461,1,-3,10,16,6,-6,4,-3,21010
-2.1907,0.552474,-0.375026,89.875,-95.1875,155.563,2.27539,-1.00293,-0.288574,28,-3,3,-1,-4,-9,47,-12,21027
-1.96413,0.872357,-0.34161,165.875,-187.375,307.875,3.30811,-1.10352,0.664551,18,3,2,26,0,1,24,-9,21086
-1.89047,0.987391,-0.306623,130.625,-171.313,288.188,2.86035,-0.800293,0.632813,-5,2,3,4,3,5,7,-2,21103
-1.83957,1.08508,-0.267345,49.0625,-136.125,251.125,2.21143,-0.334961,0.506836,6,0,9,0,10,-3,12,-11,21121
-1.79817,1.17729,-0.224823,8,-115.375,243.688,2.05127,-0.0957031,0.38916,-12,-3,-5,-4,4,-5,-17,-2,21137
-1.79817,1.17729,-0.224823,8,-115.375,243.688,2.05127,-0.0957031,0.38916,-9,-2,-10,-12,1,-2,-12,2,21154
-1.74706,1.26387,-0.168431,-5.375,-104.063,231.688,1.71582,-0.0683594,0.378418,2,1,-2,-1,-3,-1,-4,5,21171
-1.62645,1.34626,-0.0589199,41.5,-103.813,226.875,1.26563,0.152832,0.355469,-5,-4,-1,1,-13,-4,-6,0,21188
-1.38779,1.41318,0.153582,84.6875,-98.25,192.438,0.961914,0.453125,0.253418,2,3,-3,-2,1,-4,-3,0,21205
-1.01425,1.45059,0.502226,81.375,-88.375,136.438,0.717285,0.723633,0.0991211,4,3,1,1,4,0,3,-6,21222
-0.488205,1.46686,1.01125,52.3125,-70.75,88.875,0.326172,0.902344,0.0639648,14,2,5,2,7,-1,0,-2,21239
-0.0563526,1.45538,1.43685,16.625,-59,45.375,0.000976563,1.09082,0.108887,-6,-4,-9,-2,-1,-2,-6,5,21257
0.162647,1.4317,1.6534,1.75,-49.625,3.8125,-0.239746,1.15381,0.234375,-2,-4,-3,1,0,0,8,-3,21274
0.162647,1.4317,1.6534,1.75,-49.625,3.8125,-0.239746,1.15381,0.234375,-18,-2,2,-2,1,5,-3,2,21290
0.217231,1.41141,1.71051,-17.4375,-34.0625,-48.625,-0.27832,1.2251,0.316895,-8,-4,-5,-5,5,5,-8,3,21307
0.01787,1.4073,1.51226,-14.6875,-14.9375,-112.125,-0.28125,1.33643,0.431641,0,-5,-1,-5,-14,-11,12,-8,21324
-0.31415,1.39655,1.17985,-15.625,0.9375,-186.313,-0.22998,1.37646,0.490723,-2,-2,3,1,0,5,22,3,21341
-1.31813,1.2003,0.243162,-201.563,69.875,-310.188,3.96143,0.477539,-0.275391,8,-4,6,1,42,-12,13,-13,21401
-1.57724,1.08386,0.0524786,-244.563,185,-358.813,3.5,-0.984375,0.00244141,-19,-8,-4,30,4,-2,-8,-4,21418
-1.73085,0.972178,-0.0491818,-190.5,176.813,-306.313,4.32715,-1.16846,0.362305,13,5,-1,1,-47,-5,17,-21,21435
-1.73085,0.972178,-0.0491818,-190.5,176.813,-306.313,4.32715,-1.16846,0.362305,44,-4,-3,-21,-43,10,53,-24,21453
-1.82113,0.861245,-0.122417,-91.4375,189.938,-285.688,4.08252,-0.993164,-0.356445,-6,-3,-9,-17,-8,8,-13,6,21470
-1.89219,0.766789,-0.172702,-98.75,171.375,-231.813,3.24023,-0.48291,0.00878906,-3,0,-1,-12,-17,-3,-11,7,21487
-1.96017,0.681522,-0.202117,-139.313,144.188,-207.125,2.68066,-0.281738,-0.251465,-9,0,-3,-3,-8,-7,-2,-12,21503
-1.96017,0.681522,-0.202117,-139.313,144.188,-207.125,2.68066,-0.281738,-0.251465,-9,0,-3,-3,-8,-7,-2,-12,21520
-2.17068,0.535661,-0.249464,-277,154.375,-139.188,1.58545,-0.578613,-0.536621,3,-1,-2,4,-25,-5,-3,1,21538
-2.25532,0.472056,-0.272322,-212.5,143.938,-96,0.879395,-0.629883,-0.390137,1,0,3,8,7,-6,-11,-12,21556
-2.29878,0.426295,-0.285634,-107.063,99.9375,-64.625,0.736816,-0.572754,-0.555664,7,0,4,-4,4,1,7,5,21573
-2.29878,0.426295,-0.285634,-107.063,99.9375,-64.625,0.736816,-0.572754,-0.555664,5,-1,-1,0,9,-3,19,2,21591
-2.31758,0.390204,-0.296441,-33.125,61.0625,-30.5625,0.230957,-0.591309,-0.725098,-8,0,-1,0,9,-5,-5,0,21608
-2.31205,0.382858,-0.300978,29.875,6.6875,4.875,-0.129395,-0.700195,-0.835449,0,1,0,-3,6,-7,1,2,21625
-2.29745,0.385398,-0.300257,52.6875,-19.6875,11.75,-0.248535,-0.749023,-0.905762,-3,-2,-4,-3,-4,-2,-10,-10,21642
-2.27658,0.389769,-0.29707,72.125,-28.375,10.25,-0.301758,-0.79834,-0.993164,5,-1,0,-2,-4,0,11,3,21659
-2.25148,0.410202,-0.31207,62.625,-33.875,70.125,-0.104004,-0.822754,-1.26367,2,-1,-5,-6,-7,-8,22,-26,21708
-2.24784,0.451659,-0.319665,26.625,-68,110.75,0.0429688,-0.663086,-1.12402,-18,1,11,28,25,6,-54,29,21724
-2.25129,0.500869,-0.32976,5.3125,-79.6875,137.875,0.512695,-0.764648,-0.762207,-3,-3,-5,11,1,-3,12,-2,21741
-2.25706,0.559483,-0.343358,3.1875,-80.0625,151.75,1.39844,-1.11768,-0.515625,-1,1,2,12,4,-9,-15,-3,21758
-2.25706,0.559483,-0.343358,3.1875,-80.0625,151.75,1.39844,-1.11768,-0.515625,-24,-6,-12,-15,-18,-9,-45,7,21775
-2.24275,0.639377,-0.346584,46.1875,-137.875,182.625,2.68848,-1.13232,-0.219238,-14,-7,-5,11,15,-5,-7,-6,21792
-2.19141,0.753764,-0.340428,135.563,-208.625,254,3.17627,-0.88916,-0.185059,8,-5,-5,-15,-1,1,13,-3,21810
-2.10034,0.888761,-0.312516,202.125,-256.688,295.625,3.57227,-0.964844,0.197754,-10,-4,-5,-2,14,-6,-17,4,21827
-1.99523,1.00817,-0.269163,200.625,-221.563,270.563,3.20117,-1.27686,-0.123535,23,9,4,-4,-20,9,19,14,21844
-1.91588,1.10971,-0.22123,106.938,-171.813,244.875,2.53027,-0.375488,0.310547,-2,-4,3,0,-19,2,-1,-9,21861
-1.81871,1.19275,-0.152344,98.3125,-146.5,204,2.18164,-0.583008,0.0703125,0,-3,-1,-4,-4,-1,7,-1,21878
-1.81871,1.19275,-0.152344,98.3125,-146.5,204,2.18164,-0.583008,0.0703125,-4,-2,2,7,9,-1,5,-12,21895
-1.70641,1.26528,-0.0552957,59.875,-131.125,185.563,2.09473,-0.393555,-0.0415039,14,0,2,-5,-15,-15,12,-10,21913
-1.55087,1.32528,0.0856965,56.4375,-119.625,165.313,1.81494,0.0458984,-0.0800781,-4,-3,-1,-4,-11,2,-4,-2,21930
-1.33239,1.3735,0.28975,56.25,-107.188,152.25,1.13428,0.194336,0.0981445,3,-1,-3,3,-10,-9,5,-13,21947
-1.00579,1.4041,0.596467,70.1875,-108,138.688,0.782715,0.295898,0.174805,-1,-2,-1,-3,7,4,-4,4,21965
0.0977396,1.40159,1.6141,71.9375,-30.5625,78.125,0.0849609,1.06689,0.504395,7,5,0,-3,-2,-1,9,2,22026
0.315168,1.37318,1.81222,51.6875,-15.5,40.4375,-0.137695,1.15332,0.628418,-13,-3,0,-2,2,0,2,-3,22043
0.306605,1.37685,1.79234,32,5.3125,-13.75,-0.193359,1.39551,0.632813,26,9,9,5,5,-7,-1,-2,22059
0.306605,1.37685,1.79234,32,5.3125,-13.75,-0.193359,1.39551,0.632813,-11,2,-1,-4,6,1,-3,1,22075
0.180601,1.39587,1.66828,-11.1875,36.5625,-76.25,-0.213867,1.67383,0.56543,-21,-2,-2,19,4,-4,-20,1,22093
-0.134762,1.41751,1.37132,-63.8125,58.3125,-140.5,0.00244141,1.5,0.33252,35,-5,3,-2,-2,-3,29,-7,22111
-0.592089,1.41822,0.966126,-163.563,64.875,-184.25,0.321289,1.1709,0.0654297,-5,2,5,-3,-4,-3,22,-7,22128
-1.12732,1.37859,0.515587,-263.875,95.8125,-226.563,1.28711,0.839844,-0.138672,0,0,-1,-7,-1,10,2,0,22145
-1.57857,1.29293,0.162569,-307.75,177.063,-287.75,4.27588,-0.413086,-0.749512,-10,1,1,-34,-3,-9,12,5,22162
-1.8708,1.1706,-0.0450186,-276.375,249.25,-314.563,3.51904,-1.45459,-0.315918,2,-5,-11,13,42,12,11,42,22179
-1.8708,1.1706,-0.0450186,-276.375,249.25,-314.563,3.51904,-1.45459,-0.315918,-3,0,-8,14,-10,-8,-20,8,22196
-2.04767,1.05286,-0.167736,-190.813,272.063,-252.938,3.96924,-1.26953,-0.530273,1,-1,2,3,-23,11,0,-3,22213
-2.10341,0.940675,-0.20783,-63.0625,210.438,-251.5,3.28906,-1.23047,-0.483887,-7,0,-10,-11,-31,3,-21,12,22230
-2.12059,0.844795,-0.225822,-9.375,169.438,-218.938,2.62549,-1.18457,-0.500977,-3,-2,0,-5,-19,4,4,4,22247
-2.14736,0.763859,-0.232578,-62.625,134.813,-188.75,2.17041,-0.0761719,-0.211426,-1,1,-3,5,11,-2,-3,19,22264
-2.21347,0.690004,-0.234653,-185.625,125.063,-171.313,1.91992,0.0185547,-0.500488,6,1,2,12,21,-6,-3,2,22281
-2.41141,0.507442,-0.242312,-96.875,77.375,-55.6875,0.422363,-0.89502,-0.681152,-7,1,-3,-3,1,6,-8,-1,22347
-2.40663,0.483488,-0.242583,5.6875,28.6875,-18.875,0.0151367,-0.791016,-0.675781,-2,-1,-1,-1,5,-2,-5,2,22364
-2.39046,0.475731,-0.239842,47.25,-4.6875,-8.375,-0.196289,-0.62793,-0.779297,-9,-1,0,-1,-5,-6,-3,-5,22381
-2.3688,0.472166,-0.236109,67.5,-20.6875,-0.75,-0.223633,-0.725586,-0.984375,17,-1,-3,-3,-5,-4,26,9,22398
-2.33952,0.471185,-0.236379,94.8125,-18.5,11.9375,-0.375,-0.956055,-1.15479,-15,-2,-3,-1,2,-5,-11,-6,22415
-2.33952,0.471185,-0.236379,94.8125,-18.5,11.9375,-0.375,-0.956055,-1.15479,5,-3,-3,-1,1,1,19,4,22432
-2.30566,0.480487,-0.244631,113.563,-10.9375,38.3125,-0.312988,-0.999023,-1.3916,-12,-1,3,10,1,-5,-20,-11,22449
-2.29413,0.494067,-0.26273,92.125,-42.4375,88.4375,0.118652,-0.716309,-1.3667,-10,-3,2,7,8,9,-7,5,22466
-2.27677,0.537827,-0.276052,73.3125,-69.8125,126.563,0.541016,-0.473633,-0.836426,16,-1,6,-5,-7,9,27,-1,22484
-2.26665,0.582154,-0.295763,58.875,-59.1875,144.5,0.857422,-0.757813,-0.600586,9,-3,1,6,16,9,1,4,22500
-2.26665,0.582154,-0.295763,58.875,-59.1875,144.5,0.857422,-0.757813,-0.600586,-26,0,-8,3,2,-7,-16,-3,22517
-2.22642,0.735774,-0.328093,127.5,-134.25,228.75,2.76416,-0.901855,-0.165527,16,1,6,15,27,-1,9,-10,22534
-2.22642,0.735774,-0.328093,127.5,-134.25,228.75,2.76416,-0.901855,-0.165527,16,7,1,-25,-25,-1,30,-6,22551
-2.14259,0.848797,-0.321246,226.188,-198,257.25,3.27197,-0.942383,-0.0273438,13,2,0,-6,-4,0,-8,7,22568
-2.04681,0.966309,-0.303026,233.313,-196.625,275.875,3.26123,-0.789551,0.163086,-1,-2,1,3,-21,-2,7,8,22585
-1.98882,1.06657,-0.28332,117.938,-151.313,246.5,2.73145,-0.727539,0.0561523,-20,-7,-11,1,-15,8,-22,7,22602
-1.75586,1.28868,-0.122648,64.75,-109.125,165.25,1.90039,-0.119629,0.0600586,-1,-4,-2,-2,10,0,1,-10,22665
-1.60608,1.34834,0.00790433,66.625,-110.625,162.188,1.31104,0.133789,0.0825195,10,1,2,1,-4,-7,3,1,22682
