roll,pitch,yaw, gyro_x, gyro_y, gyro_z, accel_x, accel_y, accel_z, EMG0, EMG1, EMG2, EMG3, EMG4, EMG5, EMG6, EMG7, time
-1.69789,-0.771114,-0.113261,44.8125,-104.563,233,2.71973,-1.00635,0.201172,0,0,0,0,0,0,0,0,414
-1.70067,-0.689196,-0.0778059,59.625,-105.375,223,2.4707,-0.934082,0.312012,0,0,0,0,0,0,0,0,431
-1.70067,-0.689196,-0.0778059,59.625,-105.375,223,2.4707,-0.934082,0.312012,0,0,0,0,0,0,0,0,448
-1.6754,-0.541569,-0.00863559,79.5,-106.25,195.063,2.32715,-0.00244141,-0.0415039,0,0,0,0,0,0,0,0,465
-1.6754,-0.541569,-0.00863559,79.5,-106.25,195.063,2.32715,-0.00244141,-0.0415039,0,0,0,0,0,0,0,0,482
-1.67545,-0.480691,0.0285085,56.25,-110.375,183.875,1.28906,0.0209961,-0.315918,0,0,0,0,0,0,0,0,500
-1.67017,-0.416999,0.0665378,62.3125,-116.063,171.563,1.8291,0.190918,0.418945,0,0,0,0,0,0,0,0,516
-1.65246,-0.362655,0.102389,89.6875,-109.375,152.688,0.320801,0.15918,0.0205078,0,0,0,0,0,0,0,0,534
-1.65246,-0.362655,0.102389,89.6875,-109.375,152.688,0.320801,0.15918,0.0205078,0,0,0,0,0,0,0,0,551
-1.65246,-0.362655,0.102389,89.6875,-109.375,152.688,0.320801,0.15918,0.0205078,0,0,0,0,0,0,0,0,568
-1.65246,-0.362655,0.102389,89.6875,-109.375,152.688,0.320801,0.15918,0.0205078,0,0,0,0,0,0,0,0,584
-1.61579,-0.290221,0.158548,70.125,-72.5625,85.25,-0.330078,0.431641,-0.192871,-4,-4,-2,-4,1,0,4,-1,602
-1.59101,-0.289172,0.171151,35.5625,-50.0625,54.0625,0.610352,0.65918,0.710938,-1,-6,-2,-3,-3,-3,2,2,619
-1.59101,-0.289172,0.171151,35.5625,-50.0625,54.0625,0.610352,0.65918,0.710938,-3,-8,-10,-3,-12,-1,6,0,636
-1.59303,-0.274164,0.183688,17.625,-31.3125,22.875,-0.482422,0.640625,-0.186035,-2,-3,-5,2,-2,-4,-2,-2,652
-1.5667,-0.280003,0.179584,15.4375,-4.4375,-3.4375,-0.00292969,0.726074,0.864746,-1,2,5,8,-2,-3,-3,-1,669
-1.57241,-0.374699,0.11924,-59.75,75.0625,-127.25,0.0385742,0.845703,0.265137,5,-30,2,-14,3,0,3,3,719
-1.57241,-0.374699,0.11924,-59.75,75.0625,-127.25,0.0385742,0.845703,0.265137,-1,-14,11,-15,8,5,10,12,736
-1.59138,-0.431901,0.0872542,-92.625,85.125,-152.813,0.263184,0.830078,0.181152,-12,-28,-20,-6,1,-1,-1,0,754
-1.6153,-0.502778,0.0512682,-115.125,97.875,-182.625,0.835938,0.59668,0.0458984,-16,-69,-4,-6,6,1,2,-3,771
-1.66366,-0.582395,0.0184454,-186.938,96.0625,-222.063,3.68652,-0.0161133,-0.26709,-9,-56,-32,13,13,1,-3,4,789
-1.67211,-0.680571,-0.0458901,-133.5,175.625,-265.813,3.21777,-1.13818,0.0654297,-12,-3,44,73,-27,-12,-49,-29,806
-1.67211,-0.680571,-0.0458901,-133.5,175.625,-265.813,3.21777,-1.13818,0.0654297,2,72,27,24,-33,5,-7,-15,823
-1.66334,-0.765293,-0.12121,-117.938,184.75,-226.313,3.37988,-1.21631,0.0805664,7,37,-4,2,-36,-8,-40,-16,840
-1.6238,-0.848706,-0.201119,-51.8125,175.375,-226.563,3.03857,-1.13086,-0.0629883,12,52,6,9,-4,5,11,-12,857
-1.58115,-0.92599,-0.285297,-65.25,159.125,-216.75,2.79688,-0.587891,0.0595703,14,31,-45,-31,42,10,72,26,874
-1.58115,-0.92599,-0.285297,-65.25,159.125,-216.75,2.79688,-0.587891,0.0595703,-6,-70,-25,-21,13,-3,-2,29,891
-1.53409,-1.07433,-0.460038,-178.313,124.188,-202.875,2.1499,-0.227539,-0.245605,-9,15,29,27,-17,-5,-33,-27,909
-1.56002,-1.12883,-0.521708,-229.75,82.125,-153.313,1.51514,-0.377441,-0.356445,14,29,5,1,-5,3,9,-13,926
-1.56002,-1.12883,-0.521708,-229.75,82.125,-153.313,1.51514,-0.377441,-0.356445,-8,-9,3,6,-11,-2,-32,-23,943
-1.59178,-1.16117,-0.567044,-206,60.3125,-96.0625,1.02246,-0.654785,-0.421387,1,2,-19,-14,28,10,38,5,959
-1.59933,-1.17918,-0.605907,-121.063,51.9375,-60,0.584473,-0.828613,-0.484863,-2,-13,-5,-6,3,-2,7,3,975
-1.64291,-1.16513,-0.542159,83.5,-6.75,-9.75,-0.0400391,-0.516113,-0.698242,-3,-13,-1,1,2,-3,-9,-7,1034
-1.67273,-1.15452,-0.485815,82.6875,-17.8125,-17.0625,-0.306152,-0.548828,-0.760742,6,-1,4,11,-2,-2,-5,9,1051
-1.70266,-1.13607,-0.433993,69.6875,-15.3125,-2.375,-0.407227,-0.58252,-0.791016,3,13,11,9,-10,-5,-19,-19,1068
-1.70266,-1.13607,-0.433993,69.6875,-15.3125,-2.375,-0.407227,-0.58252,-0.791016,9,28,11,6,-19,-6,-15,-14,1086
-1.7554,-1.07773,-0.35425,39.0625,-21.3125,49.3125,0.231934,-0.61377,-0.725098,0,26,5,0,-5,0,6,-4,1103
-1.7554,-1.07773,-0.35425,39.0625,-21.3125,49.3125,0.231934,-0.61377,-0.725098,3,5,-7,-8,0,-2,3,0,1120
-1.77904,-1.03598,-0.315817,41.3125,-46.0625,73.8125,0.219238,-0.682617,-0.520508,8,-6,-13,-12,11,2,18,12,1137
-1.77702,-0.99568,-0.29722,52.5,-46.9375,100.125,0.564453,-0.829102,-0.37793,2,-14,-7,-27,9,5,14,11,1154
-1.75954,-0.954327,-0.281489,87.25,-48.75,114.813,1.67725,-0.903809,-0.178711,-8,16,51,33,-20,-4,-25,-14,1171
-1.73672,-0.891469,-0.243928,151.188,-95.625,166,2.31738,-0.910645,-0.0791016,-6,10,4,20,-16,-1,-9,-14,1188
-1.73672,-0.891469,-0.243928,151.188,-95.625,166,2.31738,-0.910645,-0.0791016,-23,17,-37,-19,20,1,29,2,1206
-1.70656,-0.72565,-0.123668,157.875,-156.875,211.813,2.97656,-0.750977,0.244141,-16,-59,-27,-2,-2,0,-16,9,1224
-1.70656,-0.72565,-0.123668,157.875,-156.875,211.813,2.97656,-0.750977,0.244141,48,-25,-10,-18,32,-10,20,30,1241
-1.7043,-0.647099,-0.0805408,84.9375,-125.125,210.5,2.72217,-1.08936,0.343262,33,-28,-6,6,-3,-6,-52,0,1257
-1.68614,-0.571519,-0.0423244,114.5,-116,203.563,2.59082,-0.734863,0.383789,7,29,50,39,-47,-7,-54,-34,1274
-1.66218,-0.499122,-0.00709485,119.938,-108.063,197.438,2.35645,-0.289063,0.208496,-12,46,23,19,-11,6,0,-17,1290
-1.65426,-0.360742,0.0632649,40.6875,-111.563,186.813,1.51025,0.108887,0.20166,-1,-7,-7,-7,-5,-3,-9,-2,1340
-1.6458,-0.303056,0.100791,55.25,-117.188,175.875,1.10938,0.226074,0.238281,4,6,-2,-5,3,-3,5,4,1356
-1.62767,-0.253532,0.13635,75.75,-109.5,149.313,0.753418,0.387695,0.266602,-3,-4,-7,-7,2,-4,-1,1,1373
-1.62767,-0.253532,0.13635,75.75,-109.5,149.313,0.753418,0.387695,0.266602,-2,-3,-3,-1,3,-1,-4,1,1390
-1.57933,-0.199813,0.186593,64.125,-65.3125,73.3125,0.274902,0.638672,0.329102,-6,-10,-6,1,8,3,1,0,1406
-1.57933,-0.199813,0.186593,64.125,-65.3125,73.3125,0.274902,0.638672,0.329102,-4,-5,-5,-2,7,2,-4,-6,1423
-1.55742,-0.188834,0.200229,44.875,-43.3125,42.125,0.00439453,0.824219,0.368652,-2,-9,2,2,4,0,2,-1,1441
-1.53945,-0.183925,0.205813,25.375,-21.125,9.9375,-0.246094,0.969238,0.415039,4,-2,9,7,-8,-3,-2,2,1458
-1.5311,-0.190788,0.199669,-9.3125,10.625,-30.4375,-0.358887,1.06885,0.405762,-3,-1,-4,-13,-4,1,2,-4,1474
-1.53675,-0.214951,0.182848,-52.125,38.9375,-77.0625,-0.32373,1.02881,0.36377,1,4,0,-5,-5,2,4,3,1491
-1.5628,-0.258784,0.164008,-91.0625,48.9375,-123.188,-0.0498047,0.921387,0.240723,4,-2,5,-20,6,1,17,10,1508
-1.59528,-0.316248,0.143442,-112.563,57.1875,-156.438,0.206055,0.870117,0.192383,2,-19,-12,-17,6,-3,0,4,1525
-1.59528,-0.316248,0.143442,-112.563,57.1875,-156.438,0.206055,0.870117,0.192383,-26,-79,-35,-11,-13,1,-7,-10,1542
-1.62791,-0.386893,0.116751,-121.75,78.75,-187.313,0.520996,0.608887,0.141602,2,9,-19,-5,-23,-11,-32,-24,1559
-1.66419,-0.475012,0.0794356,-148.375,116.125,-244.75,2.77734,0.527344,-0.161621,14,38,-5,24,13,-4,15,8,1575
-1.69566,-0.581518,0.0138501,-185.25,194.813,-285.938,2.76904,-0.671875,0.0112305,0,-72,-33,4,-12,-3,-10,-5,1591
-1.69221,-0.7842,-0.118646,-76.75,183.125,-271.375,3.56348,-0.961426,-0.26416,24,29,35,15,-18,-14,-40,0,1651
-1.69221,-0.7842,-0.118646,-76.75,183.125,-271.375,3.56348,-0.961426,-0.26416,-25,19,2,-8,2,7,21,1,1669
-1.63039,-1.03452,-0.335905,-157.25,120.625,-209.313,2.24121,-0.0566406,-0.170898,40,19,29,27,-27,-2,-35,-41,1686
-1.63039,-1.03452,-0.335905,-157.25,120.625,-209.313,2.24121,-0.0566406,-0.170898,-1,17,-19,-27,14,10,52,21,1703
-1.63039,-1.03452,-0.335905,-157.25,120.625,-209.313,2.24121,-0.0566406,-0.170898,-9,-19,-3,3,10,9,7,16,1720
-1.70499,-1.14249,-0.430477,-219.75,69,-115.813,1.05664,-0.650391,-0.296875,-1,-17,-17,-18,17,0,35,26,1737
-1.72531,-1.17331,-0.46533,-148.25,55.875,-86.625,0.814453,-0.657227,-0.293945,-10,-42,-27,-26,17,1,34,58,1754
-1.72531,-1.17331,-0.46533,-148.25,55.875,-86.625,0.814453,-0.657227,-0.293945,-4,-15,4,5,-1,-2,-4,-3,1772
-1.72531,-1.17331,-0.46533,-148.25,55.875,-86.625,0.814453,-0.657227,-0.293945,-10,-4,9,10,-4,1,-19,-14,1789
-1.78566,-1.17902,-0.444236,-19.8125,0.9375,-17.0625,0.261719,-0.598145,-0.512207,-11,11,15,12,0,1,-22,-13,1806
-1.82832,-1.15743,-0.396138,15.6875,-28.6875,10.5625,-0.0654297,-0.550293,-0.592773,-7,6,-1,-1,4,5,8,0,1823
-1.82832,-1.15743,-0.396138,15.6875,-28.6875,10.5625,-0.0654297,-0.550293,-0.592773,5,0,3,3,-2,-1,-14,-7,1839
-1.91607,-1.10368,-0.286382,35.25,-33.1875,10.3125,-0.318848,-0.646484,-0.801758,15,6,0,0,-7,0,-12,-12,1857
-1.92776,-1.06963,-0.265764,36.75,-5.375,32.5,-0.211426,-0.714355,-0.844238,14,12,2,7,-9,-4,-19,-18,1874
-1.92696,-1.03337,-0.257174,40.25,-2.875,57.1875,0.0703125,-0.645996,-0.757813,-4,18,12,8,-8,0,-14,-19,1892
-1.92351,-0.98811,-0.239769,66.1875,-35,83.5625,0.148438,-0.595215,-0.620117,-23,31,18,18,2,-10,2,0,1909
-1.87423,-0.893603,-0.240537,62.625,-38.6875,131.563,1.08789,-0.746582,-0.252441,-6,-5,2,-1,-14,0,-23,-7,1962
-1.84622,-0.842322,-0.23136,100.125,-58.375,136.125,2.4585,-0.629395,-0.131836,-14,18,63,55,-6,4,-20,-13,1979
-1.81818,-0.76105,-0.204116,136.313,-112.938,210.813,2.70264,-0.5,-0.0146484,-8,13,8,2,4,5,14,8,1995
-1.79572,-0.670878,-0.159044,149.5,-155.063,228.5,3.18604,-0.716309,0.0932617,-6,-15,-14,-15,12,1,13,8,2013
-1.76874,-0.579082,-0.115788,149.563,-153.938,236.313,2.83057,-1.03857,0.313477,-12,-10,3,31,19,-8,-2,1,2030
-1.75387,-0.48981,-0.0754175,101.625,-146.188,232.5,2.60596,-0.933594,0.269043,14,-45,-24,-25,-9,-3,-15,11,2047
-1.75387,-0.48981,-0.0754175,101.625,-146.188,232.5,2.60596,-0.933594,0.269043,-1,40,38,36,-14,0,-14,-23,2064
-1.72478,-0.408596,-0.0378071,130.188,-134.625,213.25,2.35547,-0.325684,0.240723,7,27,6,3,-4,-10,-13,-10,2082
-1.70345,-0.336933,-0.00320661,97.3125,-121,190.063,2.15527,-0.0292969,0.105469,2,25,5,2,-8,-9,3,-1,2099
-1.6944,-0.265373,0.0322224,55.5625,-122.375,190.813,1.80176,0.0776367,0.156738,6,24,13,14,1,-21,-13,-4,2116
-1.68013,-0.20366,0.0692347,61.9375,-126.875,186.75,1.35742,0.0810547,0.222656,2,5,-7,-3,-7,6,14,5,2133
-1.65675,-0.14586,0.108028,81.875,-127.438,170.625,0.953613,0.250977,0.240234,1,-1,-5,-9,7,4,9,6,2150
-1.62627,-0.0960832,0.142051,95.5625,-107.938,148.188,0.699219,0.452637,0.243164,-1,-7,-2,-4,-7,2,1,1,2167
-1.62627,-0.0960832,0.142051,95.5625,-107.938,148.188,0.699219,0.452637,0.243164,-2,1,1,5,3,1,-2,-1,2185
-1.59746,-0.055169,0.170109,83.5,-85.375,118.625,0.248047,0.647949,0.289551,-2,-8,-6,-1,1,4,3,-1,2201
-1.57369,-0.0297259,0.188513,50.8125,-54.6875,72.9375,-0.0078125,0.890137,0.293457,-1,-24,-2,-3,1,-4,0,2,2219
-1.55161,-0.0346881,0.189799,-27.8125,23.8125,-59.1875,-0.235352,0.814941,0.364746,-18,-6,-2,-1,0,-3,3,-4,2291
-1.5602,-0.0704074,0.171718,-49.75,49,-98,0.0126953,0.856445,0.324219,-18,-6,-2,-1,0,-3,3,-4,2308
-1.57869,-0.117724,0.14898,-62.5,64.3125,-130.75,0.174316,0.931152,0.209961,29,-15,-23,1,2,-1,4,14,2326
-1.60893,-0.178841,0.123282,-100.563,76.3125,-163.563,0.4375,0.774414,0.19873,-14,-25,9,-13,3,1,6,0,2342
-1.60893,-0.178841,0.123282,-100.563,76.3125,-163.563,0.4375,0.774414,0.19873,5,-59,35,-31,2,2,7,8,2358
-1.60893,-0.178841,0.123282,-100.563,76.3125,-163.563,0.4375,0.774414,0.19873,64,-41,16,34,-6,-2,-15,11,2375
-1.73581,-0.460694,-0.00543968,-152.875,172.438,-271.188,3.47559,-0.952148,-0.0180664,-26,39,26,18,-20,-1,-19,-24,2393
-1.74015,-0.552294,-0.0671728,-98.375,196.5,-233.25,3.81494,-1.14258,-0.32959,-20,22,-12,-3,25,4,29,8,2411
-1.74015,-0.552294,-0.0671728,-98.375,196.5,-233.25,3.81494,-1.14258,-0.32959,-9,-14,4,-18,-4,-2,-14,-6,2428
-1.72195,-0.637254,-0.129385,-47.4375,184.625,-216.813,3.05273,-0.877441,-0.368652,-37,31,-24,-13,10,3,16,5,2445
-1.70486,-0.714599,-0.182635,-46.625,149.313,-202.563,2.47168,-0.661621,-0.286621,-33,-12,-2,-14,4,3,20,15,2463
-1.71579,-0.785538,-0.222654,-109.563,111.625,-189.75,2.04541,-0.176758,-0.252441,-6,-6,-7,-3,-4,-3,-25,-12,2480
-1.75984,-0.855801,-0.255583,-192.063,97.625,-171.438,1.70166,-0.190918,-0.296875,-3,-14,-21,-20,7,-3,15,32,2497
-1.79624,-0.910514,-0.290411,-179.813,96,-136.75,1.36426,-0.728516,-0.366211,12,-9,11,7,-8,-11,-21,-4,2515
-1.81026,-0.948583,-0.321692,-109.313,80.8125,-97.375,0.897949,-0.904785,-0.422363,8,6,-9,-12,-2,-2,11,-9,2532
-1.81026,-0.948583,-0.321692,-109.313,80.8125,-97.375,0.897949,-0.904785,-0.422363,-10,-34,-24,-21,22,1,10,22,2549
-1.8602,-0.948869,-0.318647,-23.3125,10,-7.25,-0.0483398,-0.388672,-0.557129,0,-10,-2,-9,-2,-2,-3,-10,2616
-1.8602,-0.948869,-0.318647,-23.3125,10,-7.25,-0.0483398,-0.388672,-0.557129,1,-1,1,0,-3,-1,-12,-10,2633
-1.91384,-0.910932,-0.29083,-20.5,-3.625,5.75,-0.307129,-0.783203,-0.709961,-6,8,2,9,-8,-2,-21,-15,2650
-1.92785,-0.876051,-0.277587,9.5625,-10.25,31.25,-0.20459,-0.856934,-0.805176,4,16,12,7,-19,-4,-12,-1,2666
-1.92785,-0.876051,-0.277587,9.5625,-10.25,31.25,-0.20459,-0.856934,-0.805176,4,51,15,18,-11,1,-5,-3,2683
-1.91705,-0.80295,-0.248939,85.25,-31.625,73.5,0.232422,-0.602539,-0.731445,5,26,23,5,8,3,24,10,2699
-1.90002,-0.761912,-0.237011,86.75,-44.875,94.625,0.422363,-0.598145,-0.492676,1,-23,-27,-38,17,0,23,19,2716
-1.87583,-0.738072,-0.230744,84.875,-41.875,96.25,1.40625,-0.736816,-0.304688,4,-49,-14,-47,16,1,20,21,2733
-1.87583,-0.738072,-0.230744,84.875,-41.875,96.25,1.40625,-0.736816,-0.304688,3,-9,-8,1,-15,1,-32,-10,2751
-1.81094,-0.604688,-0.179122,161.5,-132.063,207.875,2.89404,-0.806641,0.0952148,4,37,24,35,6,-1,0,-19,2769
-1.81094,-0.604688,-0.179122,161.5,-132.063,207.875,2.89404,-0.806641,0.0952148,-39,-31,-24,-17,27,1,18,20,2787
-1.78258,-0.514857,-0.129867,156.125,-174.125,224,3.33154,-0.760742,0.349121,-3,-42,-18,-39,36,4,35,21,2804
-1.77417,-0.427947,-0.08858,78.1875,-154.875,222.313,2.69922,-0.739746,0.409668,22,12,47,44,-49,-5,-63,-36,2821
-1.77244,-0.340363,-0.0513379,44.5625,-147.375,225.813,2.34229,-0.655762,0.513184,-13,54,38,23,-22,-1,-22,-30,2838
-1.77244,-0.340363,-0.0513379,44.5625,-147.375,225.813,2.34229,-0.655762,0.513184,-5,53,24,21,-10,4,-5,-22,2855
-1.75083,-0.26399,-0.0222027,86.6875,-119.813,199.875,2.05859,-0.381836,0.262207,6,38,4,-1,-5,-2,10,-8,2872
-1.73637,-0.128778,0.0254551,18.25,-101.5,189,1.4541,0.208008,0.138184,-10,-42,-19,-16,7,-2,10,10,2931
-1.66976,0.00747418,0.115848,83.625,-96.4375,98.5,0.42334,0.524414,0.140137,-4,-19,-8,-10,17,1,8,5,2949
-1.66976,0.00747418,0.115848,83.625,-96.4375,98.5,0.42334,0.524414,0.140137,-4,-15,0,-1,-12,-2,-6,0,2966
-1.64331,0.0297295,0.141402,64.75,-79.375,68.3125,0.179688,0.56543,0.180176,-7,-28,-17,1,-4,0,-13,-7,2983
-1.62157,0.050648,0.158843,39.5625,-52,46.75,-0.111816,0.574219,0.333496,1,17,10,7,3,-5,-6,-9,3001
-1.60236,0.059517,0.169238,27.6875,-28.625,7.25,-0.211426,0.648438,0.404297,-3,5,1,3,-5,1,-2,-5,3018
-1.58717,0.0531337,0.171002,19.3125,-2.9375,-29,-0.119629,0.707031,0.364258,12,48,-4,-1,-1,3,9,3,3035
-1.58717,0.0531337,0.171002,19.3125,-2.9375,-29,-0.119629,0.707031,0.364258,13,25,-4,-9,6,2,5,7,3052
-1.58256,0.0321404,0.163156,-6.25,23.875,-62.625,-0.015625,0.814453,0.312988,-34,-66,-14,4,3,-1,3,-3,3068
-1.59564,-0.00368024,0.149351,-40.5,41.5625,-100.438,0.0742188,0.836914,0.240723,11,11,-1,-14,4,2,1,8,3086
-1.62609,-0.0520055,0.131705,-91.0625,55.625,-132.313,0.207031,0.756836,0.18457,6,-27,-15,-12,2,-4,2,8,3103
-1.66565,-0.110994,0.109869,-119.875,74.0625,-153.75,0.523438,0.577148,0.141602,17,36,35,-21,8,1,17,12,3121
-1.71035,-0.18659,0.0788748,-141.438,112.563,-205.25,2.28711,0.240234,-0.134766,-6,-57,-18,-29,11,6,17,13,3138
-1.76148,-0.283317,0.0330474,-176.938,171.875,-252.625,2.66504,-0.59375,-0.000976563,-9,-20,-22,14,5,-9,-22,-9,3155
-1.79779,-0.379716,-0.0112229,-145.5,174.625,-245.438,3.52783,-0.750977,0.0136719,7,17,6,6,-25,-4,-24,-28,3172
-1.80086,-0.470557,-0.0597324,-66.1875,182.438,-224.938,3.52783,-0.932129,-0.20752,-17,6,-38,-23,0,1,26,8,3189
-1.79419,-0.62501,-0.14335,-57.3125,133.938,-181.25,2.45557,-0.520996,-0.16748,-18,-2,14,11,-22,-2,-16,-18,3257
-1.82479,-0.690324,-0.173431,-140.063,110.438,-165.688,2.00635,-0.120117,-0.122559,-18,-2,14,11,-22,-2,-16,-18,3274
-1.82479,-0.690324,-0.173431,-140.063,110.438,-165.688,2.00635,-0.120117,-0.122559,4,26,10,6,-3,3,13,8,3291
-1.82479,-0.690324,-0.173431,-140.063,110.438,-165.688,2.00635,-0.120117,-0.122559,3,10,-18,-15,26,5,57,17,3308
-1.95674,-0.828123,-0.251801,-125,78.125,-65.0625,0.789551,-0.821289,-0.42627,-13,-50,-8,-4,-10,-10,-38,1,3325
-1.96892,-0.835922,-0.266505,-56.8125,53.375,-28.5,0.371582,-0.666016,-0.494629,6,-9,15,16,-13,-5,-33,-28,3343
-1.96774,-0.828149,-0.269003,12.8125,23.1875,-1.375,0.0581055,-0.51123,-0.552246,4,-10,-9,-11,6,-1,-1,-2,3360
-1.96997,-0.811524,-0.259312,34.6875,-0.0625,7.3125,-0.193359,-0.421875,-0.645996,2,-11,-3,-5,4,2,7,19,3377
-1.97619,-0.790235,-0.241071,43.1875,-13.6875,2.625,-0.353516,-0.478027,-0.740723,-5,-10,1,-1,-5,-3,-13,-4,3394
-1.97619,-0.790235,-0.241071,43.1875,-13.6875,2.625,-0.353516,-0.478027,-0.740723,-6,-10,-3,-5,-3,-3,-3,-9,3411
-1.98063,-0.767389,-0.219211,59.9375,-18,-0.3125,-0.397949,-0.528809,-0.845703,0,3,2,5,-1,3,-5,5,3428
-1.97976,-0.742874,-0.204481,62.6875,-9.375,18.75,-0.178711,-0.539551,-0.902344,2,6,4,1,-5,1,5,7,3445
-1.97706,-0.717575,-0.194921,55.6875,-11.875,43.1875,0.184082,-0.533691,-0.85498,3,9,-1,-5,-6,-5,0,2,3462
-1.96692,-0.685154,-0.185343,67.875,-31.375,65.8125,0.286621,-0.590332,-0.672363,15,-1,2,-3,-1,-3,-1,1,3479
-1.94511,-0.645615,-0.179168,82.9375,-45.75,94.875,0.509277,-0.754883,-0.472656,15,-1,2,-3,-1,-3,-1,1,3495
-1.94511,-0.645615,-0.179168,82.9375,-45.75,94.875,0.509277,-0.754883,-0.472656,-20,2,5,-7,-2,-3,4,-4,3512
-1.78671,-0.365474,-0.0588591,182.688,-200.5,231.188,3.19824,-0.713379,0.437012,8,-39,-55,-26,34,6,53,12,3582
-1.76805,-0.279538,-0.0169258,91.6875,-162.25,217.75,2.604,-0.803223,0.361328,9,-26,19,12,-17,-7,-64,-13,3599
-1.7517,-0.197747,0.0145966,68.3125,-130.438,213.625,2.19629,-0.664551,0.437988,4,10,55,38,-43,-16,-71,-41,3617
-1.72047,-0.126008,0.038774,100.688,-101.375,191.438,2.17285,-0.575195,0.189941,-5,63,18,19,3,3,13,-18,3634
-1.72047,-0.126008,0.038774,100.688,-101.375,191.438,2.17285,-0.575195,0.189941,4,39,1,0,-6,-6,12,-4,3651
-1.69601,-0.0583463,0.0604253,75.375,-87.75,183.563,1.94482,0.0913086,0.0961914,-3,2,-7,-11,3,1,2,1,3668
-1.6811,-0.00535083,0.0848688,43,-90.25,166.813,1.42188,0.192871,0.140625,4,4,-5,-1,0,0,0,7,3685
-1.66742,0.0442635,0.111591,34.625,-92.5625,150.188,0.964355,0.115723,0.167969,0,-6,-11,-13,8,-6,14,10,3703
-1.64818,0.0864338,0.1384,47.125,-87.6875,126.375,0.784668,0.203125,0.179199,-4,-16,-15,-16,0,2,9,3,3719
-1.62245,0.12275,0.164063,62.25,-80.125,108.875,0.617188,0.399414,0.212891,-5,-21,-11,-11,17,2,2,2,3736
-1.59209,0.149632,0.188347,60.125,-69.875,92.3125,0.34375,0.48877,0.267578,-3,-16,-1,-7,2,1,-2,4,3753
-1.59209,0.149632,0.188347,60.125,-69.875,92.3125,0.34375,0.48877,0.267578,0,8,8,8,-9,-1,-4,-7,3770
-1.54853,0.187416,0.215523,18.0625,-22.1875,15.375,-0.234863,0.772461,0.446777,-1,4,-8,-8,5,1,9,2,3787
-1.53392,0.188994,0.215916,7.1875,4.5625,-26.5625,-0.299316,0.879883,0.489258,-2,-2,-4,-5,-1,-3,4,1,3804
-1.53392,0.188994,0.215916,7.1875,4.5625,-26.5625,-0.299316,0.879883,0.489258,-4,-12,0,6,-2,-1,-9,-4,3821
-1.53052,0.178824,0.203213,-15.75,39.4375,-65.3125,-0.338867,1.05371,0.438477,-5,-44,-19,-7,0,-2,1,1,3839
-1.72707,-0.0554745,0.0739096,-219.438,141.688,-206.063,2.95996,0.212402,-0.227051,-1,4,-20,-32,9,3,21,16,3914
-1.78694,-0.154417,0.0171313,-188.625,211.75,-249.125,2.98877,-0.724121,0.0205078,11,13,66,43,-23,-6,-51,-23,3931
-1.82765,-0.247877,-0.0294925,-143.563,190.25,-229.688,3.23486,-1.20264,0.012207,1,12,22,34,-28,-4,-26,-31,3948
-1.82765,-0.247877,-0.0294925,-143.563,190.25,-229.688,3.23486,-1.20264,0.012207,12,41,3,0,0,6,23,-5,3965
-1.80605,-0.422403,-0.123123,-7.25,177.375,-207.938,2.96826,-0.56543,-0.275391,-32,7,-33,-26,35,0,48,11,3983
-1.80605,-0.422403,-0.123123,-7.25,177.375,-207.938,2.96826,-0.56543,-0.275391,8,5,10,2,-13,-3,-10,-13,4000
-1.80887,-0.502555,-0.161296,-57,149.125,-200.813,2.45459,-0.363281,-0.27002,16,10,10,10,-11,-8,-13,-7,4017
-1.84946,-0.578362,-0.187467,-155.125,117.563,-193.563,2.04492,-0.189941,-0.3125,-4,8,11,12,-11,-5,-10,-8,4034
-1.91492,-0.648118,-0.201389,-208,88.8125,-163.125,1.66943,-0.426758,-0.34082,-6,14,-2,-2,-1,0,5,-6,4052
-1.96244,-0.698793,-0.213746,-157.688,75.6875,-119.313,1.21582,-0.787109,-0.348145,-18,-4,-12,-8,8,-2,14,5,4068
-1.96244,-0.698793,-0.213746,-157.688,75.6875,-119.313,1.21582,-0.787109,-0.348145,28,9,28,22,-27,-7,-47,-29,4086
-1.9911,-0.732561,-0.219716,-92.3125,49.3125,-78.875,0.869629,-0.780762,-0.376465,10,31,13,12,-7,1,11,-10,4103
-2.00399,-0.742622,-0.219478,-32.8125,19.0625,-34.8125,0.466309,-0.636719,-0.374512,-19,-47,-45,-41,30,2,32,30,4121
-2.00138,-0.731664,-0.214863,24.6875,-5.5,6.4375,0.163086,-0.546387,-0.428711,-8,-49,-7,-4,-8,-6,-30,6,4138
-2.00138,-0.731664,-0.214863,24.6875,-5.5,6.4375,0.163086,-0.546387,-0.428711,-5,-22,2,-4,-8,-1,-6,-6,4155
-2.00152,-0.711641,-0.201547,36.9375,-25.8125,12.25,-0.0976563,-0.523438,-0.483398,7,-5,2,0,-7,0,-10,1,4172
-2.01645,-0.592901,-0.155459,22.1875,-12.125,63.8125,0.0795898,-0.59082,-0.852539,0,-1,5,-3,3,2,9,4,4243
-2.02038,-0.560836,-0.152525,18,-25.75,75.5,0.277344,-0.513672,-0.723145,0,-1,5,-3,3,2,9,4,4261
-2.02038,-0.560836,-0.152525,18,-25.75,75.5,0.277344,-0.513672,-0.723145,-3,-19,-26,-19,0,-2,3,5,4277
-2.01449,-0.529035,-0.151807,33.6875,-33.5625,87.0625,0.417969,-0.491211,-0.514648,-2,-1,11,5,3,-1,-4,0,4294
-1.95485,-0.479007,-0.168827,87.75,-23.8125,104.875,2.33447,-0.713867,0.125,-17,-7,-1,-4,1,2,1,-1,4311
-1.91593,-0.410809,-0.154622,128.875,-104,169.625,2.63965,-0.698242,0.191895,15,-3,-42,-13,-4,2,-5,1,4328
-1.88421,-0.326047,-0.117262,129.688,-173.375,197.563,3.06201,-0.94873,0.34375,51,46,33,60,-42,-8,-84,-44,4345
-1.88421,-0.326047,-0.117262,129.688,-173.375,197.563,3.06201,-0.94873,0.34375,-18,-38,-36,-40,34,1,52,33,4361
-1.86142,-0.242965,-0.0834114,92.5,-159.625,199.625,2.66602,-0.893066,0.387695,-5,-73,-59,-59,39,5,54,37,4378
-1.85214,-0.166059,-0.0567562,41.875,-134.125,190.188,2.45068,-0.902832,0.412109,21,-50,24,29,-30,-10,-87,-26,4396
-1.82376,-0.103595,-0.0362209,89.125,-103.375,157.438,2.01416,-0.496582,0.306152,21,-50,24,29,-30,-10,-87,-26,4413
-1.82376,-0.103595,-0.0362209,89.125,-103.375,157.438,2.01416,-0.496582,0.306152,-7,49,17,14,-3,4,10,-13,4430
-1.79725,-0.0486719,-0.0200117,79.4375,-82.5625,141.688,1.83691,-0.254883,0.0634766,6,16,-2,-1,-3,2,1,-3,4447
-1.79725,-0.0486719,-0.0200117,79.4375,-82.5625,141.688,1.83691,-0.254883,0.0634766,-1,2,-5,-6,0,-3,-1,5,4464
-1.78616,0.0412989,0.0189821,8.375,-93.875,133.75,1.19287,0.0986328,0.134277,3,12,5,6,-23,-5,-10,-1,4481
-1.77186,0.0889751,0.0447762,33.625,-103.625,133.625,0.943359,0.166016,0.163574,-3,-1,-7,-6,2,0,10,4,4498
-1.70888,0.165296,0.102682,80.6875,-97.8125,98.25,0.35498,0.317383,0.189453,-3,-9,-5,-3,1,1,6,3,4559
-1.66964,0.194418,0.130532,85.75,-85.625,75.125,0.125,0.506348,0.242188,-2,-5,4,0,-6,-2,0,2,4576
-1.62904,0.221318,0.152954,83.0625,-63.3125,54.3125,-0.09375,0.772949,0.349609,-2,-11,-2,0,12,11,-4,-1,4593
-1.57744,0.244284,0.166078,15.1875,7.5625,-38.25,-0.416504,1.07959,0.501953,2,-8,-10,-10,13,3,2,2,4610
-1.57744,0.244284,0.166078,15.1875,7.5625,-38.25,-0.416504,1.07959,0.501953,4,0,-10,-1,0,0,3,2,4626
-1.58435,0.219927,0.154899,-38.3125,38.3125,-94.4375,-0.151855,1.04102,0.413086,-1,-7,-5,-10,0,-2,-3,-2,4643
-1.62231,0.1741,0.13525,-102.063,60.25,-129.75,0.155762,0.947754,0.303711,-1,11,8,-27,-4,6,4,5,4660
-1.67259,0.112781,0.109275,-135.375,86.8125,-162.125,0.53418,0.788086,0.187988,0,-4,3,-6,1,1,0,-3,4677
-1.73665,0.0366572,0.0780596,-177,117.625,-204.438,2.04199,0.363281,-0.125488,5,15,-2,-23,0,-4,9,5,4694
-1.73665,0.0366572,0.0780596,-177,117.625,-204.438,2.04199,0.363281,-0.125488,14,26,-5,10,22,8,16,21,4712
-1.81269,-0.0591578,0.0335497,-219.25,180.563,-243.5,2.87598,-0.664063,0.0463867,-4,-14,-2,13,-13,-9,-40,-10,4729
-1.85669,-0.153646,-0.00617673,-138.313,180.063,-232,3.44629,-1.01514,-0.0888672,20,55,30,42,-12,5,-2,-14,4746
-1.85669,-0.153646,-0.00617673,-138.313,180.063,-232,3.44629,-1.01514,-0.0888672,-18,-34,-13,1,-7,-4,-31,-6,4764
-1.87334,-0.320208,-0.0999014,-38.5,190.938,-184.938,3.02539,-0.87207,-0.258789,0,2,8,7,-8,-1,-2,-8,4781
-1.87468,-0.39211,-0.136285,-40.1875,154.75,-167.438,2.50098,-0.708984,-0.286133,-5,4,1,1,2,-1,-3,-2,4799
-1.90095,-0.456484,-0.160673,-103.813,117.938,-155.5,2.01758,-0.306152,-0.248535,16,22,14,6,-15,-5,-7,-4,4816
-2.04538,-0.599574,-0.197623,-123.688,60.875,-64,0.771484,-0.696777,-0.459473,-32,39,50,45,-37,-5,-50,-39,4887
-2.06179,-0.607062,-0.207507,12.5625,15.75,-2.375,0.188965,-0.567383,-0.501465,-29,64,31,31,-16,0,-10,-17,4904
-2.06179,-0.607062,-0.207507,12.5625,15.75,-2.375,0.188965,-0.567383,-0.501465,42,22,-18,-21,12,8,42,10,4921
-2.05717,-0.597281,-0.201056,42.4375,-3.375,0.9375,-0.00146484,-0.419434,-0.589844,16,-16,-35,-37,32,12,31,25,4938
-2.06116,-0.581167,-0.185549,37.125,-22.625,-2.4375,-0.202148,-0.413574,-0.682129,2,-39,-26,-25,18,-5,11,12,4955
-2.06245,-0.558456,-0.171537,40.3125,-22.6875,1.375,-0.384277,-0.553711,-0.726074,-7,-18,8,12,-11,-6,-21,-12,4972
-2.05469,-0.534894,-0.16718,51.0625,-5.0625,15.4375,-0.303711,-0.663086,-0.764648,1,8,22,22,-16,-6,-27,-15,4989
-2.05469,-0.534894,-0.16718,51.0625,-5.0625,15.4375,-0.303711,-0.663086,-0.764648,-1,22,14,7,-2,-2,8,-3,5006
-2.04844,-0.513536,-0.164649,43.9375,-8.375,31.5,-0.00292969,-0.571777,-0.72168,4,10,-3,-3,4,-1,10,1,5024
-2.04373,-0.489688,-0.1568,45.3125,-33.5625,46.75,0.201172,-0.500488,-0.634766,-2,-1,3,6,4,1,3,2,5040
-2.03141,-0.461298,-0.151723,52.75,-44.75,72.1875,0.4375,-0.61084,-0.496094,-14,-20,-18,-25,7,2,20,14,5057
-2.00687,-0.443162,-0.15541,62.9375,-33.5625,88.5,1.04199,-0.754395,-0.302734,-3,-3,-5,-4,16,5,16,7,5074
-1.97644,-0.40133,-0.148081,95.375,-66.5,101.375,2.17969,-0.918945,-0.179688,-12,-22,-3,-18,3,0,12,16,5091
-1.92954,-0.329896,-0.129903,153,-121.375,171.75,2.68506,-0.776855,-0.0102539,13,47,56,62,-34,-7,-50,-41,5108
-1.92954,-0.329896,-0.129903,153,-121.375,171.75,2.68506,-0.776855,-0.0102539,-13,38,-16,-16,26,2,62,16,5125
-1.88004,-0.244055,-0.0914075,173.375,-181.125,197.813,3.01221,-0.828125,0.158203,-13,38,-16,-16,26,2,62,16,5144
-1.75557,0.0545084,0.0174966,66.5,-90.3125,171,2.03906,-0.244629,0.168945,-1,95,28,8,0,5,14,-23,5211
-1.75557,0.0545084,0.0174966,66.5,-90.3125,171,2.03906,-0.244629,0.168945,5,4,-9,0,-3,-1,4,3,5229
-1.74254,0.116915,0.0367937,32.5,-86.25,166.25,1.70654,0.113281,0.194336,6,2,4,-1,1,2,-2,0,5246
-1.73006,0.169871,0.061512,22.875,-97.1875,158.563,1.271,0.168457,0.178711,-1,6,6,8,-11,-5,-16,-8,5264
-1.71233,0.220193,0.0895496,32.125,-100.875,145.25,0.884277,0.0913086,0.182617,-11,-56,-18,-18,13,0,11,6,5280
-1.68676,0.262583,0.118715,50.8125,-97.1875,119.438,0.641113,0.23877,0.145996,3,-9,-27,-16,11,1,6,7,5297
-1.6544,0.2937,0.148568,62.9375,-90.1875,94.8125,0.356445,0.441895,0.129883,-3,-9,-1,-3,-1,-2,-8,1,5315
-1.62022,0.323596,0.174665,65.9375,-73.3125,73.0625,0.0776367,0.583008,0.174316,-5,-25,-2,-5,8,-1,0,4,5332
-1.62022,0.323596,0.174665,65.9375,-73.3125,73.0625,0.0776367,0.583008,0.174316,1,-7,-12,-4,-13,-2,-6,-1,5349
-1.59182,0.347409,0.191962,48.0625,-42.1875,35.25,-0.211914,0.772461,0.288086,-2,2,13,1,-1,-4,-1,0,5366
-1.56725,0.358756,0.202133,35.875,-18.0625,-9.75,-0.305176,0.950195,0.388672,3,6,-5,-8,-1,2,-1,-1,5383
-1.54782,0.355922,0.20153,29.9375,10.75,-46.25,-0.225098,1.01953,0.386719,7,-44,-15,-7,-7,-1,-3,1,5399
-1.54579,0.332607,0.192405,-12.5625,32.0625,-88.4375,0.000976563,0.967773,0.405762,-14,6,18,20,7,-2,-3,-9,5416
-1.54579,0.332607,0.192405,-12.5625,32.0625,-88.4375,0.000976563,0.967773,0.405762,-8,2,2,8,4,5,-1,0,5433
-1.54579,0.332607,0.192405,-12.5625,32.0625,-88.4375,0.000976563,0.967773,0.405762,-10,40,35,-9,-8,0,-2,2,5450
-1.67161,0.141753,0.107265,-181.063,117.063,-201.75,1.47363,0.275391,0.224609,26,36,20,-12,-1,0,12,15,5467
-1.86333,-0.147185,-0.0345405,-162.063,198.25,-224.25,3.47949,-0.798828,-0.185059,7,10,-5,-1,-6,2,10,-1,5530
-1.86333,-0.147185,-0.0345405,-162.063,198.25,-224.25,3.47949,-0.798828,-0.185059,-6,8,-15,1,2,2,0,-1,5547
-1.88909,-0.234623,-0.0830095,-100.188,205.375,-198.063,3.20068,-0.74707,-0.277832,-8,5,-24,-19,24,6,38,20,5563
-1.89449,-0.312397,-0.124512,-47.625,179.313,-175.375,2.71338,-0.763672,-0.296387,-9,-29,-7,-11,-1,-6,-11,0,5581
-1.90259,-0.379937,-0.157093,-54.9375,145.188,-155.188,2.22754,-0.506348,-0.280273,-9,4,12,8,-15,-5,-23,-17,5598
-1.93064,-0.43917,-0.178998,-105.688,112,-140.125,1.77148,-0.196289,-0.293457,14,20,19,21,-10,-6,-13,-10,5615
-1.93064,-0.43917,-0.178998,-105.688,112,-140.125,1.77148,-0.196289,-0.293457,-3,-8,-22,-14,27,2,30,9,5632
-1.98083,-0.493583,-0.189199,-153.375,78.6875,-120.25,1.19189,-0.289551,-0.371094,-19,-25,-13,-7,-6,-3,-16,-2,5648
-2.02969,-0.530722,-0.193632,-143.875,52.75,-84.875,0.888184,-0.527344,-0.431152,32,39,22,17,-16,4,0,-7,5665
-2.02969,-0.530722,-0.193632,-143.875,52.75,-84.875,0.888184,-0.527344,-0.431152,-14,-34,-38,-34,25,6,20,30,5682
-2.08197,-0.555269,-0.203897,-49.625,24.75,-17.25,0.197754,-0.701172,-0.504883,-11,-42,-17,-16,5,0,-10,3,5699
-2.08218,-0.548678,-0.201743,13.5625,4.5625,-4.875,0.0581055,-0.60498,-0.550781,-1,3,2,-2,-6,-1,14,5,5715
-2.07961,-0.536276,-0.188986,47.3125,-17.5,-6.8125,-0.0483398,-0.562988,-0.719238,2,1,-7,-2,10,0,4,-1,5733
-2.07961,-0.536276,-0.188986,47.3125,-17.5,-6.8125,-0.0483398,-0.562988,-0.719238,3,-2,-5,-9,13,3,-1,6,5750
-2.07945,-0.512625,-0.169264,55,-40.375,3.4375,-0.185059,-0.658203,-0.852051,1,-8,-4,-1,-1,-6,-14,-18,5767
-2.07316,-0.479937,-0.154022,61.0625,-47.375,31.25,-0.128418,-0.782715,-0.841309,2,4,5,12,-7,-1,-11,-11,5784
-2.0367,-0.395445,-0.14106,54.9375,-50.25,87,0.421875,-0.558594,-0.429688,-10,-6,-23,-15,10,4,18,5,5844
-2.01317,-0.35796,-0.141772,65.25,-50.375,106,0.890625,-0.753906,-0.234863,-16,-26,-20,-18,10,3,23,20,5861
-2.01317,-0.35796,-0.141772,65.25,-50.375,106,0.890625,-0.753906,-0.234863,-13,-25,9,-10,-10,-1,-14,2,5878
-1.9199,-0.241802,-0.12411,173.813,-103.188,170.375,2.37451,-0.67334,-0.0258789,10,4,21,11,-26,-4,-42,-19,5894
-1.9199,-0.241802,-0.12411,173.813,-103.188,170.375,2.37451,-0.67334,-0.0258789,-3,-7,-46,-31,24,5,45,24,5911
-1.87202,-0.157777,-0.0959686,153.125,-152,203,2.82031,-0.707031,0.125977,-18,-30,-18,-43,15,3,19,26,5928
-1.8302,-0.0794918,-0.0704025,128.25,-132,195.688,2.72803,-0.534668,0.318359,-2,-24,-10,-27,21,6,23,18,5946
-1.80687,-0.00353777,-0.0452179,70.0625,-123.5,193.188,2.44971,-0.557129,0.452637,-10,59,21,17,-5,3,20,-14,5964
-1.78058,0.068151,-0.0197709,72.8125,-116.25,184.188,2.19141,-0.46875,0.293457,-21,5,-9,1,7,-1,21,3,5981
-1.75837,0.135197,0.00759619,55.5625,-114.625,172.875,2.03613,-0.287598,0.136719,6,1,2,7,-8,-7,-12,-5,5999
-1.74072,0.199254,0.037734,36.125,-116.438,165.688,1.67334,-0.0585938,0.174805,1,4,-8,-2,5,5,-4,2,6016
-1.71688,0.251545,0.0714649,43.0625,-119.063,153.438,1.27197,0.0693359,0.212891,0,3,9,14,-9,-6,-11,-8,6033
-1.71688,0.251545,0.0714649,43.0625,-119.063,153.438,1.27197,0.0693359,0.212891,-2,12,5,6,-6,-5,-2,-6,6050
-1.68765,0.297614,0.105623,53.6875,-111.563,132.75,0.925293,0.166992,0.211914,-1,9,0,-1,8,1,2,0,6066
-1.65577,0.334585,0.137446,59.75,-96.75,106.5,0.70166,0.272949,0.232422,0,-7,-6,-5,6,-7,2,5,6084
-1.61882,0.359681,0.167468,61.8125,-81.1875,81.875,0.402832,0.40332,0.249512,-2,-16,-12,-10,-4,-3,3,6,6101
-1.52268,0.405847,0.218658,28.0625,-7.375,-14.9375,-0.17627,0.915527,0.478027,-14,-22,-13,-12,1,-1,4,0,6166
-1.5115,0.402839,0.215061,0.3125,22.0625,-46.9375,-0.200195,0.967773,0.515137,19,25,16,-2,7,6,8,7,6183
-1.52165,0.383307,0.20087,-44.9375,46.3125,-86.375,-0.0927734,0.903809,0.464355,-8,-33,-26,-15,6,-1,8,5,6200
-1.56058,0.341379,0.173399,-89.8125,72.25,-126,0.0947266,0.894043,0.371582,-46,12,19,31,1,0,-11,-9,6217
-1.61275,0.282819,0.138025,-122.938,100.125,-163.563,0.412598,0.880859,0.291016,3,-3,-41,16,6,-3,-7,-6,6235
-1.67751,0.205672,0.0952133,-155.438,135.375,-211.75,1.47021,0.507813,0.0107422,14,85,4,-17,-6,2,-9,-12,6253
-1.7496,0.100635,0.0439962,-184.375,186.75,-277.938,3.46143,-0.556641,0.0205078,-1,35,5,-32,23,3,27,14,6269
-1.7496,0.100635,0.0439962,-184.375,186.75,-277.938,3.46143,-0.556641,0.0205078,-7,-28,14,17,-18,-1,-37,-20,6287
-1.8036,0.00509726,-0.0121546,-146.063,213.25,-235.313,3.21875,-1.04395,0.159668,2,-28,23,37,-14,-9,-28,-25,6305
-1.83118,-0.0794508,-0.065842,-85.125,208.438,-197.563,3.19727,-0.835938,0.0195313,0,50,6,6,-11,-6,-13,-44,6323
-1.84397,-0.160476,-0.116287,-53.875,199.688,-185.875,2.9668,-0.562988,-0.154297,-10,2,1,-1,-9,0,12,-2,6341
-1.86064,-0.238231,-0.160204,-72.875,180.688,-180.063,2.75098,-0.214844,-0.319824,-11,28,-9,-6,4,3,23,20,6358
-1.86064,-0.238231,-0.160204,-72.875,180.688,-180.063,2.75098,-0.214844,-0.319824,2,7,-6,-7,-1,-6,0,-5,6374
-1.97782,-0.362255,-0.203385,-213.063,91.9375,-132.063,1.7085,-0.314941,-0.541016,1,-24,-15,-8,11,0,11,14,6392
-1.97782,-0.362255,-0.203385,-213.063,91.9375,-132.063,1.7085,-0.314941,-0.541016,0,-11,6,9,-7,-5,-14,-6,6409
-2.02798,-0.404708,-0.210531,-149.813,63.8125,-91.5,1.16064,-0.844238,-0.521973,4,2,12,10,-18,-8,-17,-19,6426
-2.08884,-0.470092,-0.21555,-29.1875,18.3125,-40.0625,0.255859,-0.40918,-0.525391,1,6,18,15,-8,2,-20,-10,6479
-2.10878,-0.473891,-0.209421,-33.8125,5.9375,-25.75,0.124512,-0.466797,-0.566406,4,12,-2,-1,6,1,27,13,6496
-2.12341,-0.462339,-0.203467,-23.625,-11.5,-0.3125,-0.0429688,-0.597168,-0.559082,-1,-15,-14,-17,7,3,12,15,6514
-2.12678,-0.438013,-0.202078,-5.125,-19.5625,26.6875,-0.172852,-0.715332,-0.497559,-5,-12,4,1,-6,-4,-23,-15,6531
-2.12678,-0.438013,-0.202078,-5.125,-19.5625,26.6875,-0.172852,-0.715332,-0.497559,0,5,5,10,-10,-3,-10,-5,6548
-2.12133,-0.407221,-0.205929,13.875,-16.5625,48.375,-0.207031,-0.744141,-0.506836,3,15,15,0,-6,-3,2,-2,6565
-2.1127,-0.377183,-0.209973,30.625,-20.6875,62.75,0.0209961,-0.683105,-0.602051,4,-17,-4,-14,-1,1,11,15,6581
-2.10358,-0.345224,-0.212308,43.5625,-32.5,81.9375,0.214355,-0.51709,-0.656738,5,-1,-13,-27,0,-5,6,2,6598
-2.08609,-0.303631,-0.218488,49.625,-44.75,114.313,0.367676,-0.527344,-0.65625,2,-20,-10,-5,-2,0,-2,2,6615
-2.07614,-0.25858,-0.225141,26.25,-54.375,135.938,1.18408,-0.634766,-0.555176,-11,10,0,25,3,-10,-9,-5,6633
-2.07614,-0.25858,-0.225141,26.25,-54.375,135.938,1.18408,-0.634766,-0.555176,-3,-8,3,3,-2,-1,-9,-6,6650
-2.06638,-0.204344,-0.219537,31.375,-87.9375,128.875,2.16992,-0.793457,-0.404297,4,44,44,18,-2,-4,0,-15,6666
-2.04907,-0.131709,-0.199399,59.3125,-147.813,157.25,2.45752,-0.831055,-0.283691,2,6,-32,-28,8,0,31,10,6683
-2.01623,-0.0476876,-0.161243,103.875,-204.938,166.938,2.9082,-1.0332,0.0473633,-4,-25,-26,-6,12,-3,4,3,6700
-1.9574,0.0430403,-0.115367,168.75,-225.563,184.813,2.98877,-1.13623,0.0966797,2,-14,-20,-6,26,4,19,15,6717
-1.90146,0.128241,-0.0679933,148.5,-212.688,181.25,2.59814,-1.10547,0.366699,-17,-56,-45,-34,13,3,20,18,6734
-1.74816,0.330629,0.0530217,68.0625,-126.25,149.063,1.62549,-0.0556641,0.308105,2,4,-9,-11,-1,2,0,5,6811
-1.70836,0.379787,0.0858265,76.25,-110.188,144.625,1.3208,0.215332,0.330566,-1,4,-15,-17,9,3,17,11,6828
-1.66725,0.424613,0.117895,76.8125,-98.625,130.25,0.978027,0.373535,0.324219,-1,-17,-2,0,-2,-2,-10,-1,6846
-1.63098,0.461998,0.145614,65.5625,-78.0625,106.813,0.578613,0.379395,0.31543,2,10,9,13,-4,-2,-5,-8,6863
-1.59318,0.487641,0.171784,52.1875,-58.625,71.5625,0.235352,0.415039,0.368164,2,10,9,13,-4,-2,-5,-8,6880
-1.59318,0.487641,0.171784,52.1875,-58.625,71.5625,0.235352,0.415039,0.368164,-3,-11,-7,-13,6,7,7,6,6898
-1.55973,0.504536,0.190219,47.9375,-34.4375,34,0.0981445,0.60498,0.374023,-4,-44,-12,-3,1,4,-5,0,6914
-1.52648,0.528406,0.192258,6.625,23.375,-13.4375,-0.273926,0.723633,0.382813,1,19,14,7,-7,-5,-11,-5,6931
-1.52648,0.528406,0.192258,6.625,23.375,-13.4375,-0.273926,0.723633,0.382813,-2,13,-3,2,-12,-2,1,-2,6949
-1.53185,0.523159,0.18076,-23.875,40.5,-52,-0.222656,0.671387,0.392578,4,39,-7,-11,5,3,6,4,6966
-1.54888,0.501324,0.163826,-44.0625,50.5,-84.1875,0.00732422,0.637695,0.306152,-10,-21,-12,1,-3,-2,-8,-6,6983
-1.58844,0.464225,0.136247,-79.5625,71.6875,-108.813,0.203613,0.712891,0.214355,-10,-21,-12,1,-3,-2,-8,-6,7000
-1.58844,0.464225,0.136247,-79.5625,71.6875,-108.813,0.203613,0.712891,0.214355,-12,-12,-30,-15,0,-6,-8,-5,7018
-1.63642,0.413444,0.106229,-103.563,85,-139.875,0.464355,0.708984,0.223633,20,9,-4,21,4,-1,-2,5,7036
-1.69482,0.344372,0.0742193,-133.25,103.25,-189.125,1.97217,0.469727,-0.0473633,-17,-21,-15,-20,1,-1,6,3,7053
-1.69482,0.344372,0.0742193,-133.25,103.25,-189.125,1.97217,0.469727,-0.0473633,3,25,-8,15,-4,-8,-17,-7,7071
-1.89039,-0.104117,-0.104177,-78.5625,161.188,-212.313,2.7666,-0.487305,-0.131836,11,34,37,24,-30,0,-46,-33,7143
-1.92296,-0.182168,-0.127616,-103.063,136.438,-189.313,2.32568,-0.490723,-0.212402,-3,21,28,19,-11,-2,-12,-38,7160
-1.96811,-0.248999,-0.141444,-137.438,106.375,-164.125,1.86621,-0.421875,-0.315918,7,42,2,4,6,3,26,24,7177
-1.96811,-0.248999,-0.141444,-137.438,106.375,-164.125,1.86621,-0.421875,-0.315918,-13,-33,-28,-29,20,5,31,28,7194
-2.01903,-0.305322,-0.143362,-146.125,64.5625,-129.813,1.20068,-0.538086,-0.356934,-20,-42,-18,-17,7,-5,-6,15,7210
-2.0572,-0.338588,-0.142799,-108.375,37.5625,-78.0625,0.790039,-0.63623,-0.384277,8,-9,33,29,-33,-6,-67,-45,7228
-2.08045,-0.359831,-0.142521,-62.4375,25.25,-45.125,0.441406,-0.675293,-0.443848,-16,-30,-11,-11,-3,-3,-22,-2,7244
-2.08802,-0.363434,-0.140822,-12.875,6.75,-15.5625,0.211426,-0.648438,-0.493652,-8,26,12,15,-12,-5,-4,-11,7261
-2.08019,-0.356738,-0.136283,37.75,-9.4375,0.25,0.0708008,-0.600098,-0.525879,-2,20,5,3,10,5,17,5,7278
-2.07481,-0.34214,-0.125598,43.8125,-26,0.6875,-0.165527,-0.54248,-0.601563,-2,-4,-16,-16,10,1,16,2,7295
-2.07375,-0.315813,-0.112935,34.0625,-41.0625,17.125,-0.334961,-0.594727,-0.661133,1,-11,2,1,-4,0,5,15,7312
-2.07375,-0.315813,-0.112935,34.0625,-41.0625,17.125,-0.334961,-0.594727,-0.661133,3,3,7,7,-13,-5,-27,-25,7329
-2.06998,-0.280078,-0.108851,31.875,-37.4375,56.5625,-0.246582,-0.705566,-0.685059,6,11,12,7,-3,3,-5,-2,7346
-2.06998,-0.280078,-0.108851,31.875,-37.4375,56.5625,-0.246582,-0.705566,-0.685059,-4,22,14,17,-4,-1,5,-7,7364
-2.06326,-0.215513,-0.110848,30.5,-45.125,91,0.305664,-0.498535,-0.59668,6,3,-17,-26,12,1,28,23,7382
-2.06326,-0.215513,-0.110848,30.5,-45.125,91,0.305664,-0.498535,-0.59668,6,3,-17,-26,12,1,28,23,7399
-1.94749,-0.0118736,-0.103763,150.563,-115.188,186.063,2.73047,-0.800781,-0.173828,-26,-12,-40,-29,63,13,80,36,7479
-1.845,0.144374,-0.052012,128.75,-135.188,185.75,2.43408,-0.883789,0.0869141,-22,-80,-69,-83,37,1,54,50,7496
-1.845,0.144374,-0.052012,128.75,-135.188,185.75,2.43408,-0.883789,0.0869141,3,6,10,11,-14,-5,-19,-14,7512
-1.81278,0.217121,-0.0251949,78.0625,-126.5,182.438,2.15674,-0.740723,0.240723,3,6,10,11,-14,-5,-19,-14,7529
-1.81278,0.217121,-0.0251949,78.0625,-126.5,182.438,2.15674,-0.740723,0.240723,6,59,31,22,-23,-1,-14,-20,7546
-1.81278,0.217121,-0.0251949,78.0625,-126.5,182.438,2.15674,-0.740723,0.240723,4,9,-10,0,5,-5,12,4,7562
-1.72658,0.338222,0.0233162,101.75,-91.6875,153.375,2.08594,-0.205078,0.10498,2,3,-2,2,5,0,-4,-3,7579
-1.72658,0.338222,0.0233162,101.75,-91.6875,153.375,2.08594,-0.205078,0.10498,1,-2,6,3,-1,-1,-4,-3,7596
-1.61893,0.484202,0.110638,58.625,-95.25,123.625,0.794434,0.155273,0.165527,-6,-5,-4,-2,14,2,5,0,7614
-1.61893,0.484202,0.110638,58.625,-95.25,123.625,0.794434,0.155273,0.165527,-4,1,-7,-5,-2,2,3,2,7631
-1.57836,0.509164,0.147754,54.75,-90.1875,98.125,0.627441,0.233398,0.174805,0,-9,-5,-5,1,-1,4,3,7648
-1.57836,0.509164,0.147754,54.75,-90.1875,98.125,0.627441,0.233398,0.174805,-4,-5,-7,-3,1,0,-1,0,7666
-1.48838,0.552877,0.217732,65.375,-66.125,54.875,0.141602,0.536621,0.300293,-2,17,5,-2,-1,2,1,0,7683
-1.48838,0.552877,0.217732,65.375,-66.125,54.875,0.141602,0.536621,0.300293,-3,-5,8,1,-5,-1,-3,-4,7701
-1.45091,0.570948,0.240317,48.3125,-36.9375,23.0625,-0.106934,0.759766,0.348145,-3,-4,-4,-1,-3,0,2,-2,7718
-1.42087,0.586335,0.251878,-12.8125,13.0625,-37.8125,-0.225586,0.897461,0.40918,1,3,2,5,-1,-1,6,2,7736
-1.52875,0.496558,0.185062,-107.688,76.25,-143.125,0.38623,0.770508,0.21582,-10,-9,-20,-10,-8,-2,-5,-8,7794
-1.52875,0.496558,0.185062,-107.688,76.25,-143.125,0.38623,0.770508,0.21582,11,6,12,-18,4,0,11,6,7811
-1.60833,0.431159,0.144637,-175.938,103.313,-187.938,1.65332,0.36084,-0.0834961,-17,-17,-10,-48,10,6,23,13,7828
-1.60833,0.431159,0.144637,-175.938,103.313,-187.938,1.65332,0.36084,-0.0834961,-2,-2,-9,35,0,-4,-17,-23,7844
-1.7862,0.242224,0.0298306,-178.438,200,-234.938,3.24414,-0.898438,-0.0698242,9,-12,-9,6,-2,4,14,22,7861
-1.83702,0.154363,-0.0270002,-113.625,215.25,-206.438,3.51367,-1.03271,-0.378418,4,16,8,3,0,3,3,-12,7878
-1.83702,0.154363,-0.0270002,-113.625,215.25,-206.438,3.51367,-1.03271,-0.378418,0,4,2,8,-5,-3,-9,-1,7894
-1.87618,0.00145617,-0.0961537,-35.75,136.875,-173.75,2.30371,-0.886719,-0.515137,-3,-5,-16,-17,16,7,25,10,7911
-1.87618,0.00145617,-0.0961537,-35.75,136.875,-173.75,2.30371,-0.886719,-0.515137,8,-7,14,6,-17,-6,-22,1,7928
-1.90541,-0.0587875,-0.110735,-85.0625,94.125,-151,1.87061,-0.266113,-0.293457,5,12,20,20,-21,-6,-31,-26,7945
-1.90541,-0.0587875,-0.110735,-85.0625,94.125,-151,1.87061,-0.266113,-0.293457,-7,1,-5,-4,-3,1,-7,-2,7962
-1.996,-0.161264,-0.127132,-135.188,74.4375,-107.875,1.24414,-0.761719,-0.429688,-7,12,16,13,-16,-5,-21,-12,7979
-1.996,-0.161264,-0.127132,-135.188,74.4375,-107.875,1.24414,-0.761719,-0.429688,-8,12,-3,-4,-1,-1,6,3,7996
-2.02596,-0.212118,-0.132946,-89.8125,54.9375,-78.0625,0.932129,-0.760742,-0.353516,-4,-2,-22,-13,27,2,34,16,8014
-2.02596,-0.212118,-0.132946,-89.8125,54.9375,-78.0625,0.932129,-0.760742,-0.353516,6,-32,-9,-6,-4,-4,-11,-6,8031
-2.04279,-0.248706,-0.131496,-1.6875,3,-13.625,0.320313,-0.533691,-0.376465,-5,4,10,10,-6,-3,-17,-19,8049
-2.0498,-0.196698,-0.135072,20.3125,9.5,41.375,-0.184082,-0.70166,-0.583496,3,6,8,9,-9,-3,-15,-19,8120
-2.0498,-0.196698,-0.135072,20.3125,9.5,41.375,-0.184082,-0.70166,-0.583496,-3,12,13,13,-6,-3,-7,-10,8136
-2.03087,-0.157347,-0.157209,50.5,-1.625,72.875,0.179688,-0.434082,-0.602539,-5,3,-8,13,2,-2,0,-8,8152
-2.03087,-0.157347,-0.157209,50.5,-1.625,72.875,0.179688,-0.434082,-0.602539,8,5,-5,-12,8,0,20,15,8170
-2.01574,-0.12808,-0.163432,60.25,-23.375,94.4375,0.245117,-0.443848,-0.524902,8,-11,-31,-34,11,0,17,17,8187
-1.99173,-0.0918916,-0.1714,69.875,-28.9375,117.438,0.940918,-0.538086,-0.460449,-5,-29,-33,-31,16,10,10,9,8204
-1.96275,-0.039038,-0.175764,82.4375,-48.4375,144.188,2.31836,-0.71875,-0.270996,-6,-23,-17,5,13,-2,-4,12,8221
-1.96275,-0.039038,-0.175764,82.4375,-48.4375,144.188,2.31836,-0.71875,-0.270996,-7,10,37,41,-15,-7,-29,-27,8239
-1.96275,-0.039038,-0.175764,82.4375,-48.4375,144.188,2.31836,-0.71875,-0.270996,-18,-29,-26,16,12,-5,2,12,8256
-1.87792,0.176631,-0.111957,86.0625,-155.438,169.063,2.42236,-1.37842,0.467285,-8,-29,8,11,-13,-1,-27,1,8273
-1.87792,0.176631,-0.111957,86.0625,-155.438,169.063,2.42236,-1.37842,0.467285,11,23,40,44,-45,-7,-48,-27,8290
-1.8282,0.252408,-0.0772248,121.5,-153.938,181.438,2.58154,-1.37256,0.279785,0,58,41,34,-25,-8,-19,-26,8307
-1.8282,0.252408,-0.0772248,121.5,-153.938,181.438,2.58154,-1.37256,0.279785,-8,9,-18,-10,1,1,17,5,8324
-1.72334,0.38538,-0.00884271,96.875,-121.563,168.625,2.00879,-0.0410156,0.263672,4,-9,6,4,-8,-3,-14,-4,8341
-1.69674,0.449004,0.027616,33.8125,-120.063,167.188,1.74268,0.189453,0.271973,-2,-1,4,0,-7,-4,3,0,8358
-1.69674,0.449004,0.027616,33.8125,-120.063,167.188,1.74268,0.189453,0.271973,-8,5,-1,-2,0,3,3,-4,8375
-1.59679,0.580527,0.161294,46.5625,-115.375,102.063,0.619141,0.185059,0.351074,-7,-6,4,-1,1,1,0,0,8432
-1.53369,0.605137,0.210316,74.625,-97.4375,76.8125,0.333496,0.335938,0.474121,-10,-23,-13,-3,13,-5,-3,-1,8449
-1.53369,0.605137,0.210316,74.625,-97.4375,76.8125,0.333496,0.335938,0.474121,-5,-7,1,2,-12,-7,-7,-9,8466
-1.43985,0.651241,0.272275,31.8125,-30.125,22.625,-0.206055,0.80957,0.520508,0,2,1,2,-6,-3,-2,-3,8483
-1.42208,0.665677,0.28474,-5.9375,-2.1875,-10.1875,-0.276855,0.956543,0.523438,-4,2,-6,-3,0,0,1,-2,8500
-1.42208,0.665677,0.28474,-5.9375,-2.1875,-10.1875,-0.276855,0.956543,0.523438,-1,-15,-6,-7,-2,-3,1,1,8517
-1.48332,0.64505,0.25687,-104.25,48.4375,-81.9375,-0.00585938,0.692383,0.304688,-1,30,15,-6,6,2,1,1,8534
-1.48332,0.64505,0.25687,-104.25,48.4375,-81.9375,-0.00585938,0.692383,0.304688,12,-7,-4,9,6,2,6,6,8551
-1.54461,0.607986,0.224303,-123.563,71.1875,-112.625,0.283203,0.631348,0.160645,12,-7,-4,9,6,2,6,6,8568
-1.54461,0.607986,0.224303,-123.563,71.1875,-112.625,0.283203,0.631348,0.160645,-11,-26,0,-5,5,1,2,0,8586
-1.68576,0.494229,0.131888,-139.5,138.563,-171,1.8667,0.127441,-0.218262,-21,-6,3,-5,-4,-2,-5,-8,8603
-1.77771,0.406758,0.0676994,-183.313,203.875,-221.063,2.58838,-0.723633,-0.14209,-1,-18,24,-6,12,2,11,3,8619
-1.77771,0.406758,0.0676994,-183.313,203.875,-221.063,2.58838,-0.723633,-0.14209,-3,-26,-3,20,-1,0,-5,-9,8637
-1.77771,0.406758,0.0676994,-183.313,203.875,-221.063,2.58838,-0.723633,-0.14209,0,14,2,0,-10,-3,13,-3,8654
-1.88442,0.223841,-0.0561138,-55.5625,230.063,-201.5,3.45801,-1.37451,-0.320801,-11,8,-14,-2,7,0,13,2,8672
-1.88497,0.142004,-0.0970981,20.0625,182.188,-187.563,2.94922,-1.07275,-0.448242,-5,-11,-21,-13,10,-3,14,8,8690
-1.89921,0.00263782,-0.141595,-56.75,106.063,-166.438,1.84131,-0.195801,-0.236328,-13,8,-7,-4,0,0,7,-9,8768
-2.03057,-0.161478,-0.174526,-95.1875,75.0625,-78.0625,0.928711,-0.82666,-0.361816,-11,-1,-6,-4,6,1,13,12,8785
-2.03057,-0.161478,-0.174526,-95.1875,75.0625,-78.0625,0.928711,-0.82666,-0.361816,-17,-16,-16,-7,9,1,13,11,8801
-2.04285,-0.189649,-0.184531,-42.25,49.875,-37.5625,0.505859,-0.715332,-0.328613,19,11,16,16,-8,-3,-16,-9,8818
-2.03283,-0.183528,-0.190146,32.8125,-4.5,19.4375,-0.0507813,-0.446777,-0.392578,6,-5,-16,-15,11,2,13,6,8836
-2.02612,-0.16953,-0.187832,34.5625,-11.3125,14.125,-0.210938,-0.493652,-0.479492,1,-18,-11,-10,-4,1,10,23,8853
-2.02612,-0.16953,-0.187832,34.5625,-11.3125,14.125,-0.210938,-0.493652,-0.479492,-3,-2,3,7,0,-5,-16,-13,8870
-2.02175,-0.156549,-0.185894,34.3125,-7.25,9.875,-0.23877,-0.578125,-0.615723,7,10,3,-2,-4,-4,-3,-3,8886
-2.02175,-0.156549,-0.185894,34.3125,-7.25,9.875,-0.23877,-0.578125,-0.615723,-4,3,11,15,-1,-1,-8,-7,8904
-2.01066,-0.128515,-0.193872,47.4375,3.5625,44.375,0.117188,-0.649414,-0.89502,-1,1,0,-5,-5,3,-5,-14,8921
-2.01066,-0.128515,-0.193872,47.4375,3.5625,44.375,0.117188,-0.649414,-0.89502,2,19,19,12,5,2,0,-3,8939
-2.00984,-0.0768057,-0.19317,24.125,-46.5625,90.1875,0.327148,-0.683594,-0.67627,-8,-29,-36,0,12,4,11,4,8956
-2.00984,-0.0768057,-0.19317,24.125,-46.5625,90.1875,0.327148,-0.683594,-0.67627,12,8,4,-13,25,-1,25,28,8973
-1.99863,-0.0666797,-0.185573,38.9375,-64.1875,87.5,1.16064,-0.797363,-0.453125,12,8,4,-13,25,-1,25,28,8990
-1.99863,-0.0666797,-0.185573,38.9375,-64.1875,87.5,1.16064,-0.797363,-0.453125,2,-14,34,10,-17,11,-34,-18,9006
-1.90118,0.0523603,-0.139867,170.563,-159.688,174.875,2.63184,-1.07227,0.12207,0,15,-3,-15,-14,-7,24,-4,9024
-1.74056,0.292585,-0.00879304,65.875,-131.625,192.25,2.15039,-0.393555,0.55957,-1,59,-9,4,11,11,41,-3,9094
-1.70746,0.356999,0.0183761,70,-101.188,171.125,2.18555,-0.755371,0.319824,7,34,6,4,-7,-8,6,0,9111
-1.70746,0.356999,0.0183761,70,-101.188,171.125,2.18555,-0.755371,0.319824,-1,-13,-20,-18,20,3,8,9,9128
-1.65759,0.472872,0.0713516,35.375,-89.5625,161.625,1.47412,0.198242,0.174316,2,-30,-17,-12,14,-4,7,14,9145
-1.63022,0.521112,0.106017,28.25,-97,145.563,1.04053,0.170898,0.15918,-4,-16,-7,-1,7,-6,-2,0,9161
-1.63022,0.521112,0.106017,28.25,-97,145.563,1.04053,0.170898,0.15918,0,-3,2,3,-10,-8,-8,-1,9178
-1.5654,0.591192,0.183156,33.6875,-92.9375,97.9375,0.444824,0.265625,0.169922,-6,-11,-6,0,3,3,4,1,9194
-1.5654,0.591192,0.183156,33.6875,-92.9375,97.9375,0.444824,0.265625,0.169922,2,-10,0,-1,-8,-2,-5,1,9211
-1.5187,0.61432,0.221592,58.125,-80.0625,67.875,0.325195,0.482422,0.210449,0,-4,3,3,-4,-3,-4,-5,9229
-1.5187,0.61432,0.221592,58.125,-80.0625,67.875,0.325195,0.482422,0.210449,4,5,8,4,9,3,-8,-3,9246
-1.43389,0.642927,0.275246,45.625,-33.3125,-0.25,-0.121582,0.839844,0.349121,-5,-19,-6,-4,-6,-3,2,-2,9263
-1.40848,0.647807,0.288312,18.625,-11.5625,-33.1875,-0.282715,0.890137,0.440918,0,-3,-4,-1,2,0,4,1,9280
-1.40848,0.647807,0.288312,18.625,-11.5625,-33.1875,-0.282715,0.890137,0.440918,0,-3,-4,-1,2,0,4,1,9297
-1.40848,0.647807,0.288312,18.625,-11.5625,-33.1875,-0.282715,0.890137,0.440918,-5,-5,0,4,5,1,0,-1,9314
-1.44866,0.603915,0.260867,-80.625,50.0625,-112.25,0.0605469,0.731934,0.360352,1,-2,-21,2,2,-3,2,3,9331
-1.44866,0.603915,0.260867,-80.625,50.0625,-112.25,0.0605469,0.731934,0.360352,-6,-81,-3,-4,-3,-1,4,3,9347
-1.73726,0.363835,0.0764359,-181.813,176.75,-210.063,2.52344,-0.706055,-0.00634766,-6,31,15,18,-18,8,-10,1,9417
-1.82492,0.198451,-0.0193956,-53.25,188.813,-199.063,3.19482,-0.739746,-0.380371,-7,16,-11,-15,6,8,29,-13,9434
-1.82492,0.198451,-0.0193956,-53.25,188.813,-199.063,3.19482,-0.739746,-0.380371,6,-34,-27,-18,15,-8,10,3,9451
-1.84159,0.115806,-0.0582898,-30.3125,167.813,-200.5,2.80908,-0.566406,-0.291016,28,-16,-4,-8,4,-7,-14,-2,9469
-1.84159,0.115806,-0.0582898,-30.3125,167.813,-200.5,2.80908,-0.566406,-0.291016,-31,11,18,9,-18,-8,-33,-11,9486
-1.90572,-0.0319806,-0.0973357,-123.75,96.9375,-178.813,1.95508,-0.166504,-0.342285,11,27,-1,7,8,5,14,-2,9503
-1.95686,-0.0902329,-0.103303,-147.063,74.5,-150.313,1.63916,-0.520508,-0.444824,-1,-8,-19,-8,0,-3,6,-1,9520
-1.95686,-0.0902329,-0.103303,-147.063,74.5,-150.313,1.63916,-0.520508,-0.444824,-7,-13,0,3,0,4,1,-1,9537
-1.95686,-0.0902329,-0.103303,-147.063,74.5,-150.313,1.63916,-0.520508,-0.444824,-13,-7,9,9,-14,-8,-27,-1,9554
-2.02602,-0.183878,-0.116796,-76.375,54.625,-72.25,0.722168,-0.821777,-0.381836,-8,18,28,23,-24,-11,-32,-25,9571
-2.02602,-0.183878,-0.116796,-76.375,54.625,-72.25,0.722168,-0.821777,-0.381836,31,10,-9,-5,9,4,26,6,9589
-2.02602,-0.183878,-0.116796,-76.375,54.625,-72.25,0.722168,-0.821777,-0.381836,18,-7,-18,-20,23,3,18,12,9606
-2.02602,-0.183878,-0.116796,-76.375,54.625,-72.25,0.722168,-0.821777,-0.381836,-15,-34,-12,-11,3,-2,3,15,9624
-2.05612,-0.216392,-0.113818,-6.25,-11.8125,-13.4375,-0.0268555,-0.48291,-0.515137,-10,-27,-11,-12,6,5,-3,7,9641
-2.06646,-0.205028,-0.104247,-6.75,-25.9375,-0.25,-0.134766,-0.59375,-0.601074,-4,-14,-5,-11,-3,-4,-6,-3,9657
-2.06646,-0.205028,-0.104247,-6.75,-25.9375,-0.25,-0.134766,-0.59375,-0.601074,9,4,8,7,-8,-3,-4,6,9674
-2.06133,-0.147088,-0.0975617,44.375,-28.0625,57.5625,0.252441,-0.733398,-0.791504,-31,5,-13,-7,9,6,18,10,9731
-2.01974,-0.0917463,-0.0973405,77,-46.8125,97.0625,0.473633,-0.782715,-0.512695,-21,-6,-19,-23,14,4,10,19,9748
-1.99223,-0.085304,-0.089315,89.9375,-71,99.9375,1.53271,-0.768555,-0.491211,7,-37,1,13,15,2,8,13,9764
-1.99223,-0.085304,-0.089315,89.9375,-71,99.9375,1.53271,-0.768555,-0.491211,17,-25,9,-13,-7,-3,-4,-8,9782
-1.89882,0.0579418,-0.0523957,149.5,-153.5,195.938,2.68652,-0.862305,0,6,-3,-9,6,3,4,14,11,9799
-1.83549,0.142515,-0.0176048,171.5,-165.688,202.813,2.98389,-0.783691,0.265625,-5,-41,-16,-15,11,3,2,13,9816
-1.83549,0.142515,-0.0176048,171.5,-165.688,202.813,2.98389,-0.783691,0.265625,30,-18,9,-23,-2,-6,-12,1,9834
-1.76142,0.289696,0.0283703,85.25,-98.5,185.25,2.21729,-0.730469,0.420898,30,-18,9,-23,-2,-6,-12,1,9851
-1.76142,0.289696,0.0283703,85.25,-98.5,185.25,2.21729,-0.730469,0.420898,-34,22,24,12,-28,-4,-42,-21,9869
-1.72484,0.35437,0.0452983,89.6875,-77.125,174.438,2.03174,-0.55127,0.217773,23,73,35,29,-19,-2,1,-28,9886
-1.72484,0.35437,0.0452983,89.6875,-77.125,174.438,2.03174,-0.55127,0.217773,-5,42,6,9,-10,0,18,-11,9903
-1.72484,0.35437,0.0452983,89.6875,-77.125,174.438,2.03174,-0.55127,0.217773,4,14,0,4,-2,-1,-1,-2,9921
-1.72484,0.35437,0.0452983,89.6875,-77.125,174.438,2.03174,-0.55127,0.217773,-2,-12,-12,-10,14,0,6,8,9938
-1.6603,0.513654,0.103576,29,-75.5,134.063,1.08105,0.271484,0.130371,-7,-25,-11,-10,5,0,12,7,9955
-1.6603,0.513654,0.103576,29,-75.5,134.063,1.08105,0.271484,0.130371,-7,-25,-9,-9,0,-4,-5,2,9972
-1.59665,0.578657,0.167697,39.4375,-79.0625,77.8125,0.367676,0.415527,0.137695,-11,-33,-3,5,-9,-3,-18,-10,9989
-1.49066,0.629361,0.238863,34.5625,-11.9375,2.6875,-0.1875,0.739746,0.45752,7,15,3,6,-1,1,-4,0,10046
-1.47441,0.632149,0.23744,15.9375,23.625,-39.9375,-0.225586,0.883301,0.518555,-4,-15,-2,-9,-4,0,4,0,10063
-1.47441,0.632149,0.23744,15.9375,23.625,-39.9375,-0.225586,0.883301,0.518555,6,-27,-13,-13,5,1,11,7,10080
-1.50676,0.579098,0.192482,-45.875,66.4375,-123.5,0.0678711,0.744629,0.36084,-6,-40,2,-21,10,3,6,0,10097
-1.50676,0.579098,0.192482,-45.875,66.4375,-123.5,0.0678711,0.744629,0.36084,-20,-58,-16,-12,0,-5,-4,-2,10115
-1.55444,0.52773,0.155921,-84.8125,85.0625,-152,0.299805,0.696289,0.213379,7,-11,6,23,-3,-5,-23,-10,10131
-1.55444,0.52773,0.155921,-84.8125,85.0625,-152,0.299805,0.696289,0.213379,-1,-19,-7,-13,5,5,8,3,10148
-1.68929,0.390631,0.0742161,-170.938,120.75,-201.188,2.97266,0.219238,-0.227051,-31,-53,-23,17,8,1,15,1,10165
-1.77029,0.304797,0.0234193,-182.188,174.313,-221.375,2.67285,-0.523438,0.0332031,6,25,22,28,-24,-16,-52,-21,10183
-1.77029,0.304797,0.0234193,-182.188,174.313,-221.375,2.67285,-0.523438,0.0332031,-9,6,-35,-28,21,0,42,25,10200
-1.83919,0.142386,-0.0564551,-19.375,164.25,-186.938,3.24756,-1.05615,-0.248535,-2,-21,-28,-25,7,2,16,37,10216
-1.83919,0.142386,-0.0564551,-19.375,164.25,-186.938,3.24756,-1.05615,-0.248535,-6,-9,20,14,-15,-14,-33,-16,10233
-1.84814,0.0679812,-0.0912233,-15.1875,153.125,-178.813,2.96436,-0.559082,-0.223145,2,-8,-2,-5,-14,2,-13,-2,10250
-1.86798,-0.000675097,-0.115345,-54.375,122,-169.063,2.53809,-0.334961,-0.161621,15,12,8,5,-12,-1,-17,-9,10268
-1.91888,-0.0620479,-0.128972,-147,92.5,-154.75,2.05664,-0.180664,-0.220703,7,10,-14,-10,31,5,29,7,10284
-1.985,-0.114941,-0.134033,-190.75,70,-135.438,1.49951,-0.507813,-0.291504,-8,-22,-22,-15,8,1,8,3,10302
-2.09567,-0.196374,-0.144842,-55.0625,17.625,-21.9375,0.316406,-0.612305,-0.456543,-4,-3,5,1,-16,-9,-27,-17,10370
-2.10023,-0.191681,-0.144453,-3.3125,-2.5625,6.0625,0.0683594,-0.673828,-0.554688,4,-4,-25,-23,9,4,17,1,10388
-2.09464,-0.175084,-0.141935,31.3125,-17,19.8125,-0.165039,-0.660645,-0.614746,-3,-16,-12,-9,3,1,7,7,10406
-2.08747,-0.156841,-0.137971,44.4375,-20.125,20.25,-0.219727,-0.57959,-0.693359,5,-19,-12,-17,0,-5,-3,3,10423
-2.08123,-0.138796,-0.136863,45.75,-16,30.25,-0.133789,-0.576172,-0.777832,-3,-4,3,3,-5,-4,-11,-14,10439
-2.07812,-0.121596,-0.142217,35.625,-9.1875,55,0.164063,-0.626953,-0.817871,-1,-2,2,-8,-1,0,10,11,10456
-2.07371,-0.0951786,-0.149004,32.5,-21.1875,83.3125,0.199219,-0.65918,-0.721191,3,2,2,-8,-14,-1,-11,-11,10473
-2.07371,-0.0951786,-0.149004,32.5,-21.1875,83.3125,0.199219,-0.65918,-0.721191,-3,23,22,20,-5,-2,-4,-9,10490
-2.06236,-0.0563182,-0.154509,34.3125,-40.1875,107.375,0.181641,-0.759277,-0.602051,-10,2,5,-23,8,0,15,6,10508
-2.04921,-0.0169663,-0.159888,37.3125,-42.75,114.625,0.510254,-0.790527,-0.433594,-15,-8,-26,-3,17,-3,10,5,10525
-2.02742,0.0280071,-0.158825,62.3125,-61.0625,113.625,1.74219,-0.851074,-0.268066,-10,-19,4,-27,7,1,-4,10,10542
-1.98642,0.092651,-0.151396,116.375,-97.5,158.75,2.2168,-0.84668,-0.116211,-7,-11,-9,8,-16,-4,-20,-8,10559
-1.92915,0.178244,-0.121421,152.563,-171.75,195.188,2.72852,-0.848145,0.0390625,15,29,47,34,-14,-3,-23,-17,10577
-1.86011,0.265644,-0.0803661,171.5,-188.625,201.188,2.76953,-0.675781,0.330078,-12,-25,-50,-27,26,12,45,27,10594
-1.86011,0.265644,-0.0803661,171.5,-188.625,201.188,2.76953,-0.675781,0.330078,-3,-66,-50,-35,43,8,23,31,10611
-1.80914,0.344074,-0.0400217,111.5,-165.125,188.125,2.39893,-1.10107,0.299316,25,-3,58,36,-57,-12,-88,-46,10629
-1.6831,0.533125,0.0508708,51,-94.25,152.938,1.76221,-0.0317383,0.206543,14,23,2,-2,-10,-9,7,9,10695
-1.65282,0.575734,0.0834162,34.625,-91,132.625,1.38428,0.120605,0.192383,-7,-11,0,6,-2,-6,-7,-3,10713
-1.62338,0.613789,0.118276,25.3125,-88.8125,114.313,0.922852,0.174316,0.203613,-3,-9,-9,-4,10,1,8,5,10730
-1.58534,0.640579,0.159498,28.8125,-91,93.625,0.551758,0.238281,0.190918,7,-23,2,-5,9,-4,-4,0,10747
-1.54474,0.663482,0.19886,35.875,-80.0625,66.625,0.289551,0.354004,0.211914,-2,-19,-4,-3,4,0,2,3,10765
-1.50904,0.68196,0.231996,29.3125,-61.875,35.75,0.0488281,0.540039,0.228516,6,11,0,1,0,2,-1,-1,10782
-1.476,0.698062,0.260274,24.875,-46.5625,8.125,-0.195801,0.734375,0.295898,-11,-7,-1,-2,-3,2,-14,-8,10799
-1.45168,0.707046,0.282285,5.75,-31.6875,-23.3125,-0.339355,0.823242,0.350586,-1,5,-4,-5,-3,-2,2,1,10817
-1.45168,0.707046,0.282285,5.75,-31.6875,-23.3125,-0.339355,0.823242,0.350586,-7,-1,-5,-3,1,1,-5,-5,10835
-1.4516,0.701821,0.292558,-38.0625,-13.1875,-60.1875,-0.204102,0.85498,0.273926,2,1,-5,-10,-5,-4,-1,-1,10851
-1.47788,0.678488,0.292429,-91.375,3.8125,-93,0.0537109,0.685547,0.249512,14,29,-5,-5,1,-1,1,5,10869
-1.47788,0.678488,0.292429,-91.375,3.8125,-93,0.0537109,0.685547,0.249512,12,39,31,2,-2,4,2,2,10886
-1.57893,0.587544,0.245239,-99.75,78.1875,-145.938,0.625488,0.513672,0.266602,-20,-43,-18,-18,-6,0,-3,-6,10903
-1.64021,0.522831,0.199088,-105.563,119.188,-181.063,1.76904,0.365723,-0.0795898,-1,-38,-8,-15,1,5,-1,0,10919
-1.71776,0.445965,0.143589,-148.313,163.938,-203.813,2.63428,-0.166992,0.0214844,2,-3,-16,9,-7,0,-2,2,10935
-1.71776,0.445965,0.143589,-148.313,163.938,-203.813,2.63428,-0.166992,0.0214844,-5,10,-2,10,-17,-3,6,-3,10952
-1.88758,0.192422,0.0109679,-77.25,175.813,-198.75,3.30029,-0.708008,-0.476563,5,58,21,4,-20,2,-8,-23,11015
-1.94877,0.0479386,-0.0380043,-96.75,117.25,-162.813,2.28516,-0.39209,-0.384277,3,-43,13,12,-15,-15,-62,-21,11033
-1.94877,0.0479386,-0.0380043,-96.75,117.25,-162.813,2.28516,-0.39209,-0.384277,-8,14,-4,1,7,7,25,-19,11051
-1.99402,-0.009897,-0.0481141,-129.438,91.25,-141.438,1.74609,-0.435059,-0.445313,-27,-46,-22,-19,23,2,0,12,11068
-2.04317,-0.0609939,-0.0552334,-138.188,74.1875,-107.375,1.0708,-0.564941,-0.495605,-18,-32,14,15,-18,-11,-44,-5,11084
-2.082,-0.0935815,-0.0578093,-109.75,45.125,-67.8125,0.786621,-0.589355,-0.46582,-35,-20,-1,-5,-4,-1,-16,-7,11102
-2.10832,-0.120749,-0.0583946,-67.0625,25.625,-39.1875,0.554688,-0.708496,-0.567383,33,13,19,16,-2,0,-15,4,11120
-2.11849,-0.128704,-0.0591431,-18.875,8.8125,-8.6875,0.265137,-0.65625,-0.57666,-13,16,16,15,-15,-7,-35,-22,11136
-2.11953,-0.123754,-0.0554431,13.5,-12.9375,4.9375,0.0395508,-0.492188,-0.553711,-39,44,25,21,-30,-5,-27,-20,11153
-2.11953,-0.123754,-0.0554431,13.5,-12.9375,4.9375,0.0395508,-0.492188,-0.553711,-14,50,22,22,-5,1,2,-16,11170
-2.1249,-0.111128,-0.0478395,7.375,-27.5625,8.0625,-0.142578,-0.400391,-0.588867,9,22,-10,-6,4,-1,22,9,11187
-2.12706,-0.0897039,-0.0430325,7.8125,-29.4375,23.75,-0.30127,-0.539551,-0.548828,12,-15,-15,-13,7,-4,-1,-5,11204
-2.12706,-0.0897039,-0.0430325,7.8125,-29.4375,23.75,-0.30127,-0.539551,-0.548828,1,-26,-7,-7,-1,-1,-1,3,11221
-2.12108,-0.0640534,-0.0450969,22.4375,-20.9375,45.6875,-0.27832,-0.700195,-0.529297,-6,-8,9,9,3,0,-16,-2,11238
-2.10781,-0.0435881,-0.0513228,40.5625,-14.3125,58.4375,0.0209961,-0.741211,-0.50293,-1,26,2,-7,-11,2,20,17,11256
-2.05473,0.00337649,-0.0641453,93.9375,-25.3125,91.125,0.255371,-0.625488,-0.44873,-10,-11,-1,-8,3,1,8,7,11273
-1.99252,0.0768802,-0.0859078,90.125,-28.8125,122.938,2.01709,-0.759766,-0.333984,30,54,66,55,-39,-10,-71,-41,11345
-1.94638,0.144717,-0.0871023,132.625,-72.4375,180.625,2.45068,-0.784668,-0.21582,1,13,22,35,-8,1,13,-19,11362
-1.8654,0.216034,-0.0641239,220.125,-128.75,171.563,2.68945,-0.797363,-0.122559,15,8,-22,7,10,7,33,3,11380
-1.81422,0.278874,-0.0440654,132.875,-101.563,158.813,2.44287,-0.599121,-0.152344,12,-26,21,17,-17,-6,-43,-15,11396
-1.80098,0.336733,-0.022997,19.25,-95,147.875,2.12695,-0.491211,0.0751953,4,15,34,36,-45,-12,-54,-36,11414
-1.71202,0.435821,0.0351466,109.563,-98.0625,126.188,2.09668,-0.384766,-0.00830078,5,69,-24,-23,26,-1,42,16,11431
-1.71202,0.435821,0.0351466,109.563,-98.0625,126.188,2.09668,-0.384766,-0.00830078,-5,-12,-3,-2,-6,3,6,-3,11448
-1.66085,0.48236,0.0681634,104.625,-99.6875,122.688,1.85742,-0.196777,0.11084,-3,-8,-19,-11,5,1,2,3,11466
-1.61092,0.519512,0.105706,88.625,-101,119,1.32959,0.0703125,0.169922,1,43,6,8,-12,-4,-2,-4,11483
-1.56428,0.553602,0.148594,68.25,-106,108.313,0.974609,0.21582,0.140137,-1,19,6,3,3,3,6,2,11500
-1.51934,0.572511,0.192959,46.5,-95.8125,92,0.78418,0.261719,0.230469,1,-10,-7,-3,1,0,7,-1,11517
-1.51934,0.572511,0.192959,46.5,-95.8125,92,0.78418,0.261719,0.230469,-5,-36,-16,-16,4,5,8,5,11534
-1.43263,0.603854,0.267879,46.4375,-64.125,53,0.265137,0.366699,0.297363,-4,-4,-8,-7,0,-3,-3,3,11551
-1.43263,0.603854,0.267879,46.4375,-64.125,53,0.265137,0.366699,0.297363,-7,-48,-8,-4,-12,-6,-14,-12,11569
-1.39692,0.615178,0.29385,39.125,-42.9375,27.5625,0.0693359,0.443359,0.298828,-2,3,12,3,-9,-3,-7,-4,11587
-1.36846,0.622344,0.309541,26.3125,-15.125,6.0625,0.0273438,0.572266,0.416992,5,43,17,5,3,4,3,-3,11604
-1.3512,0.623554,0.281684,-15.125,54.75,-77.8125,-0.323242,0.833496,0.469238,-19,2,16,27,5,0,-7,-11,11674
-1.39094,0.593594,0.243951,-57.8125,71.375,-113.313,-0.21582,0.90918,0.235352,-1,-15,2,-15,9,-1,14,10,11691
-1.44383,0.550837,0.206387,-96.375,71.5,-140.625,0.216309,1.01758,0.0429688,-9,-24,-20,-31,10,4,13,17,11708
-1.51511,0.491006,0.169184,-150.813,76.5,-179.313,2.396,1.15283,-0.36084,4,-55,-13,0,3,-6,2,3,11726
-1.62216,0.408103,0.104474,-226.375,166.813,-238.25,2.73828,-0.0292969,-0.328613,-7,51,25,46,-17,-10,-49,-18,11743
-1.71335,0.318373,0.0543787,-210.313,158.625,-243.375,3.20947,-1.0498,0.0332031,25,67,41,49,-38,-9,-49,-36,11759
-1.74901,0.237254,0.010036,-67.0625,157.625,-210.063,3.04297,-1.30957,-0.134766,38,113,22,31,-17,1,9,-24,11776
-1.76035,0.161789,-0.0304629,-9.5625,151.813,-191.875,3.02734,-0.52002,-0.197754,-26,-22,-50,-46,24,0,27,26,11793
-1.76035,0.161789,-0.0304629,-9.5625,151.813,-191.875,3.02734,-0.52002,-0.197754,-16,-52,-18,-24,-5,-8,-23,5,11811
-1.77603,0.0918175,-0.0639321,-33,132.5,-177.875,2.8335,-0.116211,-0.160645,-1,44,25,23,-12,-6,5,-14,11828
-1.82323,0.0288953,-0.0859229,-131,102,-161.5,2.52148,-0.0112305,-0.215332,-11,19,-18,-22,19,9,49,21,11844
-1.90318,-0.0272766,-0.095164,-229.313,71.75,-146.688,1.93262,-0.132324,-0.32666,12,-31,-15,-18,13,3,2,6,11861
-1.90318,-0.0272766,-0.095164,-229.313,71.75,-146.688,1.93262,-0.132324,-0.32666,-16,-22,-13,-6,4,-1,25,17,11878
-1.98799,-0.0804281,-0.0994065,-241.938,59.8125,-118.125,1.25342,-0.553711,-0.37793,-13,12,56,43,-53,-16,-80,-33,11895
-2.0485,-0.120912,-0.100368,-173.813,47.0625,-91.6875,0.869629,-0.799805,-0.400879,54,47,6,4,7,1,7,-45,11912
-2.08146,-0.154175,-0.0975524,-92.1875,25.6875,-64.5,0.510742,-0.739746,-0.435059,20,18,-22,-21,22,6,43,30,11929
-2.06972,-0.157064,-0.0945536,72.6875,-7.5,19.4375,-0.155273,-0.744629,-0.64502,-12,-9,-14,-18,17,4,44,40,11984
-2.03577,-0.14551,-0.0936332,103.188,-13.4375,21.4375,-0.340332,-0.624512,-0.682129,-3,-22,-1,4,-6,-4,-21,-14,12000
-2.0039,-0.136152,-0.0881424,100.688,-21.9375,11.5625,-0.286133,-0.566895,-0.731934,7,7,16,18,-12,-3,-17,-11,12017
-1.99466,-0.125736,-0.0854867,64.875,-16.0625,29,0.157715,-0.555664,-0.839355,0,11,-5,-3,1,4,8,-3,12035
-1.98877,-0.103111,-0.0928506,41.6875,-8.875,79.0625,0.228027,-0.466797,-0.637695,-1,2,9,15,-2,-1,-8,-11,12052
-1.97421,-0.064296,-0.103799,40.625,-17.1875,117.75,0.247559,-0.566895,-0.326172,5,9,9,8,-7,-2,-5,-9,12069
-1.97421,-0.064296,-0.103799,40.625,-17.1875,117.75,0.247559,-0.566895,-0.326172,-8,5,-5,11,-4,-6,-5,-2,12087
-1.95788,-0.0233495,-0.108695,45.1875,-38.75,128.75,0.96875,-0.711914,-0.242188,4,11,-7,10,-3,-4,-13,-6,12104
-1.92822,0.0400863,-0.107208,84.875,-70.125,167.813,2.37842,-0.785156,-0.0844727,-7,55,-4,1,-17,1,-1,3,12121
-1.92822,0.0400863,-0.107208,84.875,-70.125,167.813,2.37842,-0.785156,-0.0844727,2,-5,-19,-12,-17,-6,-10,-6,12139
-1.87807,0.122028,-0.0986573,141.875,-99.5625,214.125,2.479,-0.83252,0.223633,17,-12,-6,11,9,3,15,-3,12156
-1.8206,0.207182,-0.0748214,153.313,-132.063,216.063,2.6084,-0.659668,0.196289,1,-42,-16,-11,-1,3,1,18,12173
-1.7867,0.289447,-0.0518465,81.1875,-116.688,214.875,2.54932,-0.575195,0.178711,13,-6,28,13,-34,-15,-64,-17,12190
-1.76818,0.367266,-0.0275224,30.125,-110.25,204.75,2.50928,-0.583496,0.198242,-3,45,40,42,-32,-6,-38,-37,12207
-1.73756,0.438186,-0.00155229,58.625,-104.438,187.438,2.24072,-0.504395,0.171387,1,39,29,33,-14,-1,-13,-28,12224
-1.70477,0.502753,0.0293011,53.625,-105.75,171.063,1.92139,-0.282715,0.0625,0,-5,-21,-17,27,1,19,9,12241
-1.62532,0.609684,0.112974,54.125,-119.688,144.5,1.28711,0.0820313,0.11084,1,-11,-2,-1,1,1,-8,-1,12295
-1.57242,0.650806,0.163719,64.3125,-119.5,124.688,0.912109,0.182129,0.131836,-3,-25,-4,-15,3,5,19,11,12312
-1.51721,0.682866,0.21285,68.1875,-105.938,100.5,0.660156,0.299316,0.171875,7,-6,19,10,-12,-7,-25,-4,12329
-1.51721,0.682866,0.21285,68.1875,-105.938,100.5,0.660156,0.299316,0.171875,0,16,0,2,1,-2,-3,-5,12346
-1.39337,0.731912,0.304847,66.6875,-60.8125,50.125,0.0581055,0.726563,0.38623,-1,6,-5,-2,6,2,6,2,12363
-1.35355,0.747838,0.333573,26.9375,-30.75,8,-0.151367,0.890137,0.461426,-8,2,-8,-8,8,3,7,1,12380
-1.35355,0.747838,0.333573,26.9375,-30.75,8,-0.151367,0.890137,0.461426,1,17,-16,-10,14,1,4,4,12396
-1.33809,0.745439,0.346164,-37.375,16.625,-63.5,-0.124023,0.779785,0.427734,14,61,3,7,-7,-4,-2,1,12413
-1.33809,0.745439,0.346164,-37.375,16.625,-63.5,-0.124023,0.779785,0.427734,-6,-36,-12,-8,3,1,9,3,12430
-1.37362,0.715789,0.323304,-64.1875,33.625,-100.375,0.0991211,0.719238,0.331055,2,50,10,11,7,1,2,2,12448
-1.42174,0.677668,0.291453,-84,53.9375,-123.625,0.311035,0.731934,0.285645,-30,-11,-3,-13,4,5,0,0,12466
-1.48049,0.629981,0.249157,-99,82.6875,-143.188,0.684082,0.546387,0.274902,-23,-29,-18,-2,-1,3,3,-3,12484
-1.56393,0.568725,0.19819,-156.625,111.813,-181.375,2.22217,0.232422,-0.034668,7,-14,7,-15,10,-7,15,5,12501
-1.66697,0.493091,0.130275,-196.625,177.625,-209.25,2.68652,-0.432617,-0.0483398,-3,71,-27,17,18,0,-13,1,12519
-1.75864,0.40959,0.0691915,-186.625,190.063,-214.563,3.11621,-0.922363,-0.00244141,2,-41,25,22,-38,-8,-52,-35,12537
-1.75864,0.40959,0.0691915,-186.625,190.063,-214.563,3.11621,-0.922363,-0.00244141,10,66,26,20,-5,-12,3,-28,12554
-1.88609,0.1599,-0.0900979,-57.4375,178.25,-183.375,2.37012,-0.558594,-0.360352,-31,-27,-19,-18,10,4,19,14,12616
-1.91944,0.0890044,-0.115913,-86.5625,135.563,-168.313,1.87012,-0.21582,-0.355957,-31,-27,-19,-18,10,4,19,14,12634
-1.91944,0.0890044,-0.115913,-86.5625,135.563,-168.313,1.87012,-0.21582,-0.355957,-16,-34,-8,-9,-8,-8,-25,2,12652
-2.00654,-0.0274991,-0.142411,-135.938,81.8125,-114.938,1.24756,-0.413574,-0.487305,19,37,58,45,-40,-6,-63,-63,12669
-2.04774,-0.0656857,-0.150868,-117.063,64.25,-76.4375,0.787598,-0.699219,-0.484863,27,47,-5,-2,18,7,57,-8,12686
-2.07106,-0.0937569,-0.158216,-62.25,44.875,-38.5,0.45166,-0.771484,-0.525391,-10,-47,-25,-14,10,0,-2,18,12704
-2.07885,-0.108827,-0.163122,-12.625,29.75,-22.625,0.208496,-0.595215,-0.513672,-4,-7,-1,2,-6,0,-9,0,12722
-2.08136,-0.115715,-0.162524,10.0625,10.75,-19,0.0507813,-0.463379,-0.54248,-1,7,12,10,-8,0,-5,-8,12740
-2.08136,-0.115715,-0.162524,10.0625,10.75,-19,0.0507813,-0.463379,-0.54248,-5,-11,-22,-19,20,2,21,15,12757
-2.08346,-0.111671,-0.159363,14.5625,-5.25,-4.375,-0.10498,-0.507324,-0.605469,-5,-11,-22,-19,20,2,21,15,12774
-2.07835,-0.0971309,-0.157963,31.5,-11.875,16.4375,-0.219727,-0.678223,-0.647461,-3,-30,-9,-9,-1,-3,-8,4,12791
-2.07835,-0.0971309,-0.157963,31.5,-11.875,16.4375,-0.219727,-0.678223,-0.647461,-6,-5,7,8,-4,-2,-10,-6,12808
-2.06461,-0.0796332,-0.159748,56.0625,-11.125,34,-0.131836,-0.750977,-0.686035,-1,11,-3,-7,-1,0,5,-2,12825
-2.03326,-0.0361969,-0.163214,71.625,-37.25,79.6875,0.237793,-0.487305,-0.67334,4,2,-16,-4,11,4,17,10,12842
-2.01404,0.00158317,-0.162808,58.5,-52.25,105,0.513184,-0.608887,-0.515137,0,-7,-25,-21,8,1,12,10,12858
-2.01404,0.00158317,-0.162808,58.5,-52.25,105,0.513184,-0.608887,-0.515137,-18,-22,-23,-12,12,0,3,5,12875
-1.82646,0.280178,-0.0739545,201.188,-185.5,198.875,3.10693,-0.759766,0.303711,-13,-22,-41,-22,28,10,36,18,12942
-1.79336,0.354942,-0.0325044,57.75,-160.375,181.563,2.5708,-0.51709,0.560547,-8,-60,-40,-42,39,5,39,32,12959
-1.74581,0.42004,0.00406654,96.8125,-132,163.688,2.17334,-0.415039,0.469238,16,10,57,51,-57,-17,-90,-38,12976
-1.74581,0.42004,0.00406654,96.8125,-132,163.688,2.17334,-0.415039,0.469238,2,48,8,12,8,-4,-8,-13,12993
-1.72347,0.471512,0.0334864,27.375,-99.1875,133,1.87793,-0.305176,0.233887,24,59,14,16,-16,-6,-10,-15,13009
-1.70407,0.512688,0.0653646,8.75,-97.6875,126.875,1.42822,-0.0517578,0.203613,2,20,-1,5,-18,-6,-1,-8,13026
-1.67496,0.550577,0.101142,30,-101.5,113.625,1.16357,0.0439453,0.115723,-4,2,-15,-15,6,-1,15,14,13043
-1.63994,0.584524,0.135084,46.125,-90.1875,100.938,0.931152,0.234375,0.107422,1,-14,-11,-4,-4,-3,-5,-1,13060
-1.63994,0.584524,0.135084,46.125,-90.1875,100.938,0.931152,0.234375,0.107422,3,-16,12,13,-3,1,-9,-7,13077
-1.59914,0.609827,0.171666,52.1875,-87.5625,91.125,0.651855,0.333984,0.105469,-12,23,-5,-3,8,4,18,1,13094
-1.54962,0.634805,0.212923,61.1875,-87.8125,76.625,0.416992,0.425781,0.205078,-6,-16,-7,-8,3,-1,-4,2,13111
-1.49214,0.655558,0.253594,76.25,-76.75,49.3125,0.162109,0.566895,0.29834,-12,-45,-9,-1,1,-3,-5,1,13127
-1.43831,0.670342,0.288185,65.75,-55.1875,18.1875,-0.0800781,0.65918,0.431152,6,10,-2,-4,19,5,-1,4,13144
-1.39706,0.681761,0.312526,40.9375,-28.6875,-4.6875,-0.226074,0.782715,0.513672,-4,-19,-8,-9,1,2,0,1,13161
-1.37699,0.685971,0.319705,7.8125,7.1875,-36.8125,-0.277832,0.864258,0.538574,-15,-12,10,-2,-1,0,1,-3,13178
-1.37699,0.685971,0.319705,7.8125,7.1875,-36.8125,-0.277832,0.864258,0.538574,-4,-6,1,-1,3,-1,-1,0,13195
-1.57967,0.533448,0.16179,-153.125,117.125,-182.625,1.74609,0.470215,-0.0371094,9,-29,-13,-2,6,1,-5,-3,13268
-1.66296,0.455965,0.0965502,-149.625,175.75,-213.5,2.6792,-0.133789,-0.0136719,15,27,19,11,-18,-7,-30,-14,13285
-1.73191,0.378146,0.0423776,-135.188,169,-203.375,2.74609,-0.912109,-0.0888672,-22,-22,22,23,-38,-9,-49,-29,13301
-1.73191,0.378146,0.0423776,-135.188,169,-203.375,2.74609,-0.912109,-0.0888672,4,23,-19,-25,30,17,98,23,13319
-1.77722,0.238893,-0.0432998,1.625,148,-170.688,2.83789,-0.494629,-0.141602,-41,-48,-7,-26,10,-5,-10,16,13336
-1.77722,0.238893,-0.0432998,1.625,148,-170.688,2.83789,-0.494629,-0.141602,12,69,57,43,-42,1,-27,10,13353
-1.77729,0.169779,-0.0793895,20.6875,140.063,-173.125,3.30469,-0.214355,-0.256836,10,24,-11,-4,7,8,31,-2,13370
-1.79441,0.107492,-0.106056,-38.4375,111.75,-158.188,2.86133,0.0698242,-0.351074,12,-13,-12,-12,10,-2,-14,-15,13386
-1.84556,0.0541073,-0.114926,-144.625,62.25,-142.125,1.95215,-0.1875,-0.384766,12,-13,-12,-12,10,-2,-14,-15,13403
-1.84556,0.0541073,-0.114926,-144.625,62.25,-142.125,1.95215,-0.1875,-0.384766,-13,-17,-15,-15,-7,4,17,-13,13420
-1.9072,0.00912583,-0.111397,-175.188,23.1875,-107,1.1499,-0.736328,-0.375488,-6,-10,3,1,1,-5,-21,-1,13437
-1.95803,-0.0184778,-0.108061,-145.938,14.875,-65.875,0.721191,-0.775391,-0.302246,18,15,31,30,-15,-12,-48,-37,13453
-1.98977,-0.0460889,-0.106959,-91,14.8125,-43.5625,0.506836,-0.637207,-0.274902,-16,-7,2,0,-4,-5,-10,1,13469
-2.00169,-0.0602584,-0.108252,-29.8125,11.5,-15.6875,0.345703,-0.540527,-0.323242,-14,-2,10,7,-4,-3,-10,0,13486
-2.00093,-0.0637358,-0.10778,12.9375,0,-1.8125,0.15918,-0.462891,-0.378906,-4,6,-1,-2,-2,-1,9,6,13502
-2.00404,-0.0551544,-0.101359,8.6875,-24.6875,11.25,-0.0322266,-0.352539,-0.422363,8,-10,-4,-1,0,-4,-2,1,13518
-2.03166,0.00840288,-0.093501,-9.3125,-8.9375,53.4375,-0.137207,-0.737793,-0.62793,-13,15,-4,14,-5,-1,-5,-13,13584
-2.03295,0.0274072,-0.102706,14.125,-4.8125,67.4375,0.0898438,-0.732422,-0.635254,17,37,0,6,1,1,6,1,13601
-2.03295,0.0274072,-0.102706,14.125,-4.8125,67.4375,0.0898438,-0.732422,-0.635254,19,-1,0,3,5,0,8,5,13619
-2.01253,0.0546928,-0.109137,64.25,-24.125,91.6875,0.166504,-0.719727,-0.423828,-24,5,-19,11,-2,2,2,-8,13636
-1.97926,0.0935998,-0.113941,97.6875,-38.9375,118.5,0.641602,-0.830078,-0.423828,-20,16,-5,-20,17,6,35,21,13653
-1.9419,0.142458,-0.112562,106.313,-56.6875,128,1.91846,-0.755859,-0.388672,-15,-25,-29,-20,23,0,22,19,13671
-1.8952,0.209336,-0.103331,129.375,-90.125,171.375,2.5708,-0.641602,-0.0986328,6,-35,-3,-10,14,2,6,10,13688
-1.83616,0.290292,-0.0782629,151.375,-134,201.625,2.77197,-0.77832,0.264648,-16,-14,-17,5,14,2,13,-2,13704
-1.77958,0.367264,-0.0449001,131.313,-139.688,193.438,2.9541,-0.736816,0.404785,2,-29,-5,-20,-2,-5,-5,12,13722
-1.77958,0.367264,-0.0449001,131.313,-139.688,193.438,2.9541,-0.736816,0.404785,9,-8,13,-7,-7,0,-9,-8,13739
-1.7165,0.504274,0.00619082,66.875,-94.125,170.875,2.04883,-0.632813,0.381348,13,-12,-2,7,-15,-5,-20,-14,13756
-1.7165,0.504274,0.00619082,66.875,-94.125,170.875,2.04883,-0.632813,0.381348,-19,51,17,29,-21,-2,-15,-23,13773
-1.7165,0.504274,0.00619082,66.875,-94.125,170.875,2.04883,-0.632813,0.381348,6,16,-5,-7,-8,-3,17,2,13791
-1.64961,0.612749,0.0595066,39.25,-77.875,141.188,1.66357,-0.0537109,0.11377,0,2,2,4,-6,-1,-12,-8,13808
-1.62161,0.653449,0.0931406,21.6875,-84.75,127.313,1.23486,0.0581055,0.104492,5,21,12,15,-16,-1,-8,-9,13826
-1.58539,0.690205,0.134448,28.1875,-95.3125,113.813,0.98291,0.120605,0.119629,-4,2,-8,-13,16,4,15,8,13843
-1.43773,0.759919,0.268614,45.25,-70.1875,59.125,0.208496,0.51416,0.229492,3,4,5,3,-7,3,-4,0,13914
-1.39262,0.778843,0.308081,29.3125,-56.1875,33.5625,-0.0849609,0.593262,0.342773,2,-9,-3,3,-10,-10,-6,-6,13932
-1.35688,0.793711,0.338992,10.75,-32.875,4.25,-0.265137,0.760254,0.466309,2,-9,-3,3,-10,-10,-6,-6,13948
-1.35688,0.793711,0.338992,10.75,-32.875,4.25,-0.265137,0.760254,0.466309,-4,4,-1,-3,9,0,0,-3,13964
-1.34052,0.800285,0.35161,-14.0625,2.9375,-33.625,-0.375,0.81543,0.562988,10,1,-8,-5,5,1,4,8,13981
-1.35923,0.79402,0.337981,-58.875,45.0625,-78,-0.264648,0.871582,0.512695,-15,-1,-16,-6,11,5,0,-5,13998
-1.35923,0.79402,0.337981,-58.875,45.0625,-78,-0.264648,0.871582,0.512695,-3,-35,-16,-3,13,20,0,3,14015
-1.51054,0.719396,0.238396,-143.688,101.938,-141.563,0.15332,0.692383,0.293457,23,13,-17,-3,1,-3,4,9,14033
-1.6134,0.659312,0.183095,-193.25,120.125,-165.188,0.925781,0.416504,-0.0390625,13,59,-14,-3,8,3,2,1,14051
-1.70931,0.594673,0.126155,-179,148.5,-172.813,3.50244,0.0776367,-0.248047,-4,77,14,-20,2,0,13,8,14067
-1.75824,0.511869,0.0795333,-70.125,150.75,-215.625,2.83838,-0.849121,-0.328125,18,-9,12,24,-26,-8,-38,-19,14084
-1.75824,0.511869,0.0795333,-70.125,150.75,-215.625,2.83838,-0.849121,-0.328125,8,-23,0,16,-3,-2,8,-14,14102
-1.78788,0.440211,0.0377321,-29.875,145.75,-179.875,2.68359,-0.924316,-0.249512,12,24,2,-9,24,7,35,22,14120
-1.79269,0.364799,0.0072809,20.3125,125.313,-193.375,2.93701,-0.695313,-0.487305,3,-42,5,1,-12,-6,-29,-24,14136
-1.80818,0.291579,-0.0182376,-20.5,115.438,-188.75,3.13428,-0.527344,-0.341797,-44,16,22,15,-13,-4,-6,-4,14153
-1.83245,0.223887,-0.0360626,-56.5,95.5,-176,2.74854,-0.471191,-0.339355,-30,7,-11,-17,-16,6,4,-12,14169
-1.87695,0.114298,-0.0473074,-56.4375,37.875,-117.25,1.27441,-0.615723,-0.158203,-8,-39,-2,-8,-13,-6,-53,-5,14224
-1.895,0.0620877,-0.0441098,-54.8125,17.875,-84.25,0.902832,-0.364258,-0.0898438,16,60,17,15,8,10,46,-15,14241
-1.93311,0.00264234,-0.0459433,-50.0625,21.8125,-30.9375,0.376953,-0.499512,-0.187012,12,-47,-30,-29,15,-7,15,41,14258
-1.93311,0.00264234,-0.0459433,-50.0625,21.8125,-30.9375,0.376953,-0.499512,-0.187012,-7,-36,11,6,-18,-2,-45,-16,14276
-1.95335,-0.00873325,-0.05054,-51.5,19.75,-14.6875,0.175781,-0.491699,-0.299805,7,18,22,14,-15,-1,-11,-11,14294
-1.97431,-0.0122623,-0.0547687,-46.8125,15.5625,-5.125,-0.00195313,-0.348633,-0.358398,-1,-11,-23,-23,7,1,27,23,14311
-1.99003,-0.0067364,-0.0607057,-24.125,15.125,8.0625,-0.205566,-0.409668,-0.510254,2,-21,-23,-16,-6,-2,-5,-5,14328
-1.99862,0.00892825,-0.0687308,-5.25,11.25,30.625,-0.308594,-0.644043,-0.600586,7,6,0,2,15,-1,-4,-2,14345
-2.00151,0.0255587,-0.0787731,8.375,9.5,47.5625,-0.143066,-0.791992,-0.620117,2,25,4,8,-11,-1,-4,-4,14361
-1.99971,0.0376329,-0.0890655,28.375,5.5625,56.9375,0.177246,-0.658691,-0.642578,-11,-8,4,5,3,5,7,-4,14378
-1.99971,0.0376329,-0.0890655,28.375,5.5625,56.9375,0.177246,-0.658691,-0.642578,-7,0,10,-1,0,2,1,0,14395
-1.99032,0.0496732,-0.0987073,52.0625,-2.0625,69.25,0.389648,-0.525391,-0.608887,-5,-16,-1,-9,0,-2,1,2,14412
-1.97428,0.0651426,-0.111212,58.125,-5.1875,99.5,0.646484,-0.686035,-0.449707,-32,11,42,24,-10,-8,-27,-20,14429
-1.95378,0.108198,-0.117798,60.5,-29.8125,120.875,1.63721,-0.892578,-0.295898,-9,-15,-4,3,-13,1,-21,-13,14446
-1.91348,0.168045,-0.111266,112.625,-78.25,154.063,2.35889,-0.82373,-0.125977,15,5,48,39,-11,-5,-12,-11,14463
-1.91348,0.168045,-0.111266,112.625,-78.25,154.063,2.35889,-0.82373,-0.125977,-9,-21,-43,-35,-1,-5,9,6,14480
-1.73424,0.466314,0.0105779,75.875,-112.813,174.063,2.15234,-0.548828,0.26709,8,41,45,40,-40,-7,-53,-35,14544
-1.69522,0.52662,0.038548,73.8125,-94.6875,160.688,2.02051,-0.416016,0.116211,-2,18,-9,-6,7,3,18,-2,14561
-1.69522,0.52662,0.038548,73.8125,-94.6875,160.688,2.02051,-0.416016,0.116211,-8,3,-4,-5,2,2,-2,-6,14578
-1.66439,0.584095,0.0674269,44.625,-87.6875,156.188,1.85156,-0.0693359,0.112793,-8,3,-4,-5,2,2,-2,-6,14594
-1.62966,0.630229,0.101306,41.5625,-89.4375,145,1.44385,0.0800781,0.14502,6,8,3,0,-6,-4,-6,3,14611
-1.58616,0.672276,0.142795,50.125,-97.625,127.438,0.964355,0.211426,0.164063,-1,4,1,4,-17,-2,-3,-5,14628
-1.58616,0.672276,0.142795,50.125,-97.625,127.438,0.964355,0.211426,0.164063,-4,-12,12,-5,1,0,7,4,14645
-1.58616,0.672276,0.142795,50.125,-97.625,127.438,0.964355,0.211426,0.164063,-7,-20,-16,-11,4,2,3,2,14661
-1.43676,0.751715,0.275221,39.75,-68.5,56,0.144531,0.42627,0.341309,1,-2,-4,-5,10,1,2,8,14678
-1.43676,0.751715,0.275221,39.75,-68.5,56,0.144531,0.42627,0.341309,1,-2,3,-4,-2,-1,1,0,14695
-1.39543,0.7665,0.309107,24.875,-41.3125,27.0625,0.0175781,0.557129,0.455566,0,-9,2,-1,-9,-7,-1,0,14713
-1.3649,0.776403,0.329848,15.9375,-14.4375,-0.875,-0.138184,0.630859,0.48877,2,-5,-9,-4,-5,-1,-5,-2,14729
-1.35576,0.779645,0.333875,-10.6875,14,-33.5625,-0.177246,0.748535,0.455566,0,0,-7,1,0,3,-2,-3,14747
-1.37509,0.770884,0.319717,-51.9375,39.9375,-71.875,-0.0429688,0.827637,0.35791,-6,29,7,11,-1,0,1,-2,14763
-1.37509,0.770884,0.319717,-51.9375,39.9375,-71.875,-0.0429688,0.827637,0.35791,0,-4,1,-21,-1,-6,0,0,14781
-1.42627,0.741108,0.285529,-84.5625,58.3125,-104.188,0.106445,0.836914,0.234863,-17,-25,-21,40,1,-5,-19,-9,14799
-1.71431,0.456937,0.0792843,-149.313,198.875,-265.438,2.51025,-0.452148,-0.189453,-2,9,32,17,-47,-17,-43,-36,14870
-1.80033,0.364281,0.0268113,-186.375,185,-235.813,2.97656,-0.948242,-0.0449219,21,42,7,-8,-84,-11,42,43,14886
-1.8392,0.271042,-0.00825132,-80,158.438,-235.5,3.28613,-0.777832,-0.182617,-8,-2,-2,-19,36,-28,6,-8,14903
-1.8392,0.271042,-0.00825132,-80,158.438,-235.5,3.28613,-0.777832,-0.182617,0,-41,-13,6,59,-8,-7,9,14920
-1.8556,0.190108,-0.0307561,-32.375,123.875,-206.063,3.01025,-0.423828,-0.240234,15,-6,14,11,-32,7,-11,-6,14937
-1.88875,0.126565,-0.0417802,-90.0625,83.625,-164.625,2.52637,-0.217773,-0.214355,11,4,12,6,-41,5,-18,-18,14954
-1.93595,0.0782448,-0.0452006,-134.375,55.75,-127.188,1.97217,-0.0688477,-0.290039,-6,22,-3,-2,17,11,17,2,14971
-1.98836,0.0389793,-0.0451494,-150.125,42.625,-104.063,1.44141,-0.437012,-0.393066,-15,4,-9,-7,30,-10,15,6,14989
-2.03722,0.00472004,-0.0451294,-138.438,34.875,-73.75,0.961426,-0.56543,-0.390625,2,-21,6,-2,-24,-9,-28,3,15005
-2.07145,-0.0264968,-0.0443763,-92.0625,18.4375,-40.0625,0.668945,-0.699219,-0.476074,-20,27,5,7,3,7,17,-14,15022
-2.07145,-0.0264968,-0.0443763,-92.0625,18.4375,-40.0625,0.668945,-0.699219,-0.476074,2,-1,5,5,-1,0,-13,-2,15039
-2.08598,-0.0356086,-0.0436542,-37.9375,-0.5625,-2.625,0.375488,-0.710938,-0.46582,0,14,-2,-3,-2,3,2,-5,15056
-2.08302,-0.0310806,-0.0416595,15.4375,-17.9375,20.0625,0.216309,-0.680176,-0.493164,9,3,-8,-8,14,2,20,13,15073
-2.07614,-0.0189235,-0.0373751,32.5625,-28.375,26.0625,0.0390625,-0.599121,-0.533691,-5,-9,-6,-7,-1,-1,-2,5,15090
-2.06708,-0.00121456,-0.0332639,41.125,-31.375,33.1875,-0.0961914,-0.589355,-0.563965,-4,-1,4,1,-4,-5,-4,7,15107
-2.05652,0.0199442,-0.0347342,45.1875,-22.125,50.125,-0.0981445,-0.652832,-0.588867,-4,-2,0,-2,-5,6,-9,-12,15125
-2.00922,0.0956537,-0.0569166,75.375,-29.25,107.125,0.186035,-0.484375,-0.451172,6,1,14,12,-6,-3,-12,-3,15197
-1.98508,0.136258,-0.0657189,73.1875,-29.4375,125.5,0.496582,-0.614746,-0.350098,6,1,14,12,-6,-3,-12,-3,15215
-1.98508,0.136258,-0.0657189,73.1875,-29.4375,125.5,0.496582,-0.614746,-0.350098,-5,9,21,-12,-10,-2,0,-6,15231
-1.91255,0.244847,-0.0771321,123.313,-55.75,174.125,2.2876,-0.662598,-0.104492,12,14,18,-13,-24,-5,-14,-10,15247
-1.85811,0.323995,-0.0623835,143.938,-108.75,203.188,2.56738,-0.716309,0.0126953,-4,25,3,17,13,9,19,1,15265
-1.85811,0.323995,-0.0623835,143.938,-108.75,203.188,2.56738,-0.716309,0.0126953,-10,0,-40,-29,47,7,56,30,15282
-1.79457,0.401336,-0.0357603,155.375,-125.25,196.438,2.62744,-0.666504,0.106445,-19,-71,-44,-60,8,-13,23,22,15299
-1.75123,0.473132,-0.00760432,89.8125,-113.125,187,2.33643,-0.71582,0.102051,-7,-21,-25,-15,22,-11,-11,9,15316
-1.75123,0.473132,-0.00760432,89.8125,-113.125,187,2.33643,-0.71582,0.102051,19,9,45,52,-46,-7,-62,-22,15334
-1.70716,0.539641,0.0244276,81.5,-109.313,175.813,2.29541,-0.644043,0.266602,6,62,24,56,2,2,0,-18,15351
-1.59382,0.650692,0.0960412,80.625,-94,148,1.68311,-0.00439453,0.150879,-4,22,-5,-2,-1,-4,3,-5,15368
-1.54818,0.69512,0.14225,44.9375,-100.688,141.563,1.22314,0.14502,0.216309,-8,-6,-25,-18,14,14,24,12,15385
-1.54818,0.69512,0.14225,44.9375,-100.688,141.563,1.22314,0.14502,0.216309,-1,18,25,-1,19,3,9,8,15403
-1.44755,0.76304,0.246398,40.9375,-96.25,101.75,0.728516,0.300781,0.262695,-5,-38,-26,-8,33,4,4,4,15421
-1.44755,0.76304,0.246398,40.9375,-96.25,101.75,0.728516,0.300781,0.262695,0,-13,8,1,-13,2,-7,-6,15438
-1.39231,0.784108,0.302223,24.75,-82.8125,79.3125,0.428223,0.374512,0.372559,8,30,5,4,-3,-9,0,-2,15454
-1.30047,0.815448,0.397937,-3.9375,-44.625,20,0.0537109,0.737305,0.578613,-8,20,10,6,-12,-1,-10,-8,15516
-1.28079,0.819206,0.428522,-47.625,14.25,-46.5625,-0.172363,0.730957,0.533691,0,5,1,-5,3,5,8,-1,15533
-1.30918,0.805745,0.413982,-78.6875,37.4375,-78.75,-0.116211,0.57666,0.444824,7,-9,-6,-4,-5,-3,1,7,15551
-1.37051,0.777856,0.372168,-95.25,67.25,-103.938,0.00830078,0.564941,0.297852,-3,-8,4,7,-8,-4,-13,-5,15568
-1.44146,0.741688,0.32328,-110.188,85.75,-123.375,0.124512,0.536621,0.195313,-12,-12,-9,14,-11,-5,-6,-11,15586
-1.52027,0.693381,0.266377,-118.313,110.063,-147.75,0.498047,0.480957,-0.019043,-25,-39,-22,-29,-8,-2,3,-3,15603
-1.52027,0.693381,0.266377,-118.313,110.063,-147.75,0.498047,0.480957,-0.019043,18,-16,19,-2,-4,-4,-2,3,15620
-1.59955,0.624167,0.199064,-109.25,150.25,-200,2.48389,0.288086,-0.398926,18,-15,-23,5,5,3,-1,5,15638
-1.68788,0.540666,0.118462,-125.875,210.125,-224.75,2.62305,-0.467773,-0.229004,18,-15,-23,5,5,3,-1,5,15655
-1.7638,0.457486,0.056621,-132.625,190.75,-211.5,3.68799,-0.819336,-0.278809,4,60,27,11,-26,7,8,-1,15672
-1.7638,0.457486,0.056621,-132.625,190.75,-211.5,3.68799,-0.819336,-0.278809,8,3,-27,-24,25,-1,32,18,15689
-1.78587,0.379201,0.0061404,-4.1875,175.063,-193.063,3.49951,-1.3252,-0.549316,-5,-11,7,1,0,-10,6,10,15706
-1.77567,0.313216,-0.0198182,54.3125,107.875,-170.313,2.88574,-0.802734,-0.505371,-11,-41,-31,-23,40,7,12,26,15724
-1.77931,0.254595,-0.0298468,-2.4375,61.25,-158.938,2.40674,-0.303223,-0.345703,5,-36,-8,-14,-4,-7,-21,2,15741
-1.77931,0.254595,-0.0298468,-2.4375,61.25,-158.938,2.40674,-0.303223,-0.345703,10,41,18,15,-9,3,-1,-16,15758
-1.86475,0.172438,-0.0340805,-136.75,38.6875,-100.563,1.57324,-0.494141,-0.327637,10,41,18,15,-9,3,-1,-16,15775
-1.9464,0.0770244,-0.0387369,-37.0625,-0.5,-22.5,0.484863,-0.541992,-0.274414,-13,-30,-26,-20,22,5,24,18,15844
-1.95084,0.0763567,-0.0341338,-6.3125,-18.5,9.1875,0.205078,-0.458496,-0.300293,-13,-30,-26,-20,22,5,24,18,15861
-1.94878,0.0867697,-0.030856,18.1875,-21.125,24.5,-0.0375977,-0.433105,-0.376953,-2,-5,9,2,-4,-9,-9,2,15878
-1.9445,0.101569,-0.0295079,28.75,-15.75,24.9375,-0.259277,-0.53418,-0.466309,1,-3,6,1,-6,-2,-1,-4,15895
-1.94166,0.118944,-0.0350055,28,1.5,33.5625,-0.361328,-0.616699,-0.524414,0,0,5,7,0,-9,-20,-22,15911
-1.9464,0.13382,-0.0470393,16.5625,14.4375,47.5,-0.165039,-0.63916,-0.650391,7,15,13,10,-8,-2,-5,-8,15928
-1.95104,0.144543,-0.0589721,22.6875,7.9375,60.125,0.196289,-0.636719,-0.736328,-11,9,-4,-9,-9,0,2,2,15945
-1.95104,0.144543,-0.0589721,22.6875,7.9375,60.125,0.196289,-0.636719,-0.736328,-5,11,-9,1,-1,-2,11,11,15962
-1.94683,0.166094,-0.0694964,40.875,-8.375,91.75,0.231445,-0.736328,-0.664063,-5,11,-9,1,-1,-2,11,11,15979
-1.94683,0.166094,-0.0694964,40.875,-8.375,91.75,0.231445,-0.736328,-0.664063,-8,-25,-5,-8,5,3,4,5,15996
-1.93557,0.202741,-0.0784455,39.875,-19.75,118.875,0.573242,-0.840332,-0.484863,5,-14,4,-2,7,-4,-2,5,16014
-1.9178,0.24546,-0.0797751,51.75,-39.3125,116.063,1.92627,-0.851563,-0.32666,-1,-9,8,7,-1,0,-14,-2,16031
-1.9178,0.24546,-0.0797751,51.75,-39.3125,116.063,1.92627,-0.851563,-0.32666,2,4,26,33,-15,-5,-6,-15,16048
-1.75511,0.458717,-0.00434081,147.875,-151.938,190.938,2.54785,-0.957031,0.260742,-22,-91,-37,-22,26,0,21,23,16065
-1.75511,0.458717,-0.00434081,147.875,-151.938,190.938,2.54785,-0.957031,0.260742,20,5,40,40,-69,-12,-86,-37,16081
-1.71239,0.528851,0.0312694,73.875,-121.625,183.625,2.14258,-0.850098,0.262695,20,5,40,40,-69,-12,-86,-37,16098
-1.57278,0.732477,0.154975,18.25,-77.25,125.125,1.24121,0.0166016,0.161621,-5,-13,-7,-7,-1,4,-6,1,16165
-1.57278,0.732477,0.154975,18.25,-77.25,125.125,1.24121,0.0166016,0.161621,1,-10,-3,-4,-5,-4,-3,0,16183
-1.53846,0.766323,0.196044,16.5,-83.1875,108.063,0.82959,0.0483398,0.105957,-7,9,-8,-10,16,5,7,4,16201
-1.49452,0.785824,0.244446,22.3125,-88.5625,85.5,0.632324,0.124512,0.105957,0,-16,-8,-8,9,8,7,2,16218
-1.43882,0.8011,0.29693,43.8125,-89.125,67.5625,0.574707,0.273438,0.155762,-8,-2,-10,-5,5,7,4,1,16235
-1.36865,0.815179,0.349575,74.625,-80.0625,47.625,0.3125,0.480957,0.269043,-4,-19,-4,2,2,20,-5,-3,16253
-1.30035,0.830685,0.393452,77.5,-53.8125,20.125,-0.134766,0.733398,0.399414,-1,3,4,2,-3,-1,-7,-5,16271
-1.24616,0.842402,0.427126,46.625,-29.6875,-15.5,-0.341797,1.02002,0.518066,-1,-21,-2,-1,4,4,-1,-1,16289
-1.22023,0.842514,0.440823,8.0625,-3.875,-57.625,-0.278809,1.0708,0.48584,-4,-3,-6,-8,13,0,4,4,16307
-1.22023,0.842514,0.440823,8.0625,-3.875,-57.625,-0.278809,1.0708,0.48584,23,59,21,-5,7,-2,3,2,16323
-1.25521,0.81458,0.415116,-53.8125,25.5,-102.313,-0.0273438,0.830566,0.38623,-14,-45,-15,47,4,2,-12,-7,16340
-1.31649,0.777637,0.378259,-105.563,45.25,-128.5,0.188965,0.697266,0.287109,10,22,7,31,-9,-11,-16,-9,16356
-1.39319,0.729059,0.327934,-123.75,76.125,-157.75,0.489746,0.446289,0.166992,-7,-1,12,9,-9,-1,-4,-6,16374
-1.39319,0.729059,0.327934,-123.75,76.125,-157.75,0.489746,0.446289,0.166992,-1,-4,19,-11,-14,-7,-10,-4,16391
-1.48745,0.668357,0.267709,-158.875,108.375,-189.813,1.57178,0.140137,-0.0654297,-19,17,13,26,-33,-9,-40,-29,16408
-1.58842,0.586684,0.187213,-153.688,179,-240.25,2.7168,-0.334961,-0.113281,-4,-27,-18,-24,0,-5,-12,7,16426
-1.76615,0.273752,-0.0220056,-10.625,143.688,-187.813,2.75928,-0.368164,-0.25293,-41,40,77,58,-70,-17,-94,-57,16495
-1.7999,0.208068,-0.0480481,-79.0625,110.813,-168.688,2.34863,-0.216797,-0.213867,20,85,45,25,-34,-1,-17,-50,16511
-1.85658,0.1491,-0.0630289,-154.563,83.9375,-152.813,1.86816,-0.227539,-0.330078,37,46,-7,-4,19,7,26,-7,16528
-1.91979,0.0903245,-0.0719157,-176.313,69.4375,-132,1.18408,-0.623535,-0.347656,-1,-26,-27,-18,12,-2,13,19,16544
-1.91979,0.0903245,-0.0719157,-176.313,69.4375,-132,1.18408,-0.623535,-0.347656,-6,-34,-10,-10,1,0,2,-10,16562
-1.96918,0.0511344,-0.0749907,-139.625,44.125,-88.3125,0.768066,-0.694336,-0.358398,-23,5,32,22,-32,-10,-51,-21,16580
-1.99306,0.0161636,-0.0791398,-60.75,35.0625,-52.0625,0.538086,-0.762207,-0.45166,-11,38,25,22,-13,-2,-16,-31,16597
-1.99306,0.0161636,-0.0791398,-60.75,35.0625,-52.0625,0.538086,-0.762207,-0.45166,6,23,-8,-4,18,4,38,16,16614
-1.99739,0.00327135,-0.0819846,-5.25,14.875,-13.125,0.260254,-0.751465,-0.457031,16,-1,-7,-10,13,1,3,12,16632
-1.98578,0.00988507,-0.0813134,47.1875,-12.125,22.3125,0.0849609,-0.662598,-0.508301,16,-10,-4,-3,-5,-1,-11,-6,16649
-1.98578,0.00988507,-0.0813134,47.1875,-12.125,22.3125,0.0849609,-0.662598,-0.508301,-9,-6,1,-5,1,-1,-3,7,16667
-1.96298,0.0457513,-0.0649052,49.125,-43.875,31.3125,-0.168457,-0.439453,-0.608398,-3,-1,6,7,0,1,-6,-3,16684
-1.96486,0.0659174,-0.0616038,22.8125,-30.8125,44.375,-0.120605,-0.525879,-0.663086,-1,-6,1,5,-2,-3,-9,-11,16701
-1.96971,0.0829807,-0.0669379,12.375,-11.875,63.0625,0.131348,-0.599121,-0.644531,3,11,-7,-8,-6,0,13,11,16719
-1.96868,0.102996,-0.07157,22.6875,-19.4375,76.25,0.219238,-0.593262,-0.53418,-12,6,-20,15,9,-1,10,-2,16737
-1.95884,0.129514,-0.0721151,39.5,-39.125,94,0.268066,-0.674805,-0.452637,-4,-7,-15,-12,28,5,31,25,16753
-1.83532,0.281058,-0.0353461,150.875,-116.125,179.313,2.48975,-0.691895,-0.163574,-36,-23,-43,-30,40,4,69,30,16825
-1.7737,0.35842,-0.00170998,146.063,-140.563,194.375,2.73193,-0.581543,0.0224609,4,-61,-5,-4,-16,-8,-54,0,16842
-1.72586,0.430315,0.0324265,99.5,-125.75,186.875,2.54346,-0.688965,0.180176,20,-2,26,27,-49,-12,-48,-31,16859
-1.69744,0.499222,0.0687498,34.75,-119.875,182.375,2.26904,-0.900391,0.215332,-8,40,12,3,-11,2,-15,-7,16877
-1.65395,0.561354,0.103955,73.5,-105.25,167.938,2.19287,-0.740723,0.189453,-10,19,17,11,-23,-1,-14,-15,16894
-1.65395,0.561354,0.103955,73.5,-105.25,167.938,2.19287,-0.740723,0.189453,14,19,-4,-3,19,1,13,7,16910
-1.60429,0.617041,0.137038,89.125,-87.9375,154.688,2.03711,-0.353027,0.0454102,3,-1,3,4,-13,0,7,-1,16927
-1.56305,0.668898,0.171655,58.8125,-81.5625,147.563,1.74463,-0.0385742,0.0600586,0,6,-1,4,5,-2,-1,0,16944
-1.52239,0.710923,0.213106,39.0625,-86.3125,139.563,1.35254,0.103027,0.09375,-2,-9,-6,-6,2,-4,4,3,16961
-1.47248,0.748384,0.26421,43.625,-98.4375,124.5,0.952148,0.184082,0.115723,-3,-13,-11,-9,12,2,5,4,16979
-1.41372,0.774971,0.319393,56.9375,-101.375,96.0625,0.705078,0.223633,0.120117,-2,-12,-2,0,-1,-5,-8,-2,16996
-1.34188,0.788489,0.379652,69.125,-96.75,64.5,0.479492,0.394531,0.22998,-4,-6,0,-2,-4,-2,-2,-2,17013
-1.27285,0.796467,0.432677,69.9375,-81.625,30.125,0.258301,0.64502,0.243164,2,1,2,-1,-2,-2,3,0,17030
-1.21227,0.803297,0.475172,54.375,-54.875,1.8125,0.015625,0.921875,0.375,-6,-2,4,-6,3,0,6,1,17046
-1.16928,0.807589,0.501923,27.3125,-23,-27.9375,-0.227051,0.995117,0.52002,-1,3,-4,2,-3,-3,0,-1,17063
-1.15168,0.800995,0.51083,-11.0625,3.9375,-59.3125,-0.3125,0.713379,0.675781,12,-10,-9,-14,-6,-5,-3,3,17081
-1.2199,0.763731,0.446287,-56.375,71.75,-105,0.12793,0.75293,0.415527,-5,36,3,2,-10,1,-2,-2,17132
-1.2888,0.727751,0.382361,-78.25,99.375,-145.563,0.300293,0.791016,0.196289,10,-2,-16,-9,7,4,11,6,17149
-1.38004,0.66987,0.301501,-112.688,136.063,-193.813,1.26611,0.730469,-0.106934,-1,-11,-48,-30,8,1,13,12,17166
-1.49599,0.59662,0.204187,-166.563,195.063,-238.313,3.06348,-0.0102539,-0.32666,2,31,12,-36,26,1,27,17,17184
-1.61871,0.510434,0.118374,-222.813,206.063,-249.813,3.08984,-0.893066,-0.104492,-18,-60,-38,-29,15,3,18,22,17201
-1.61871,0.510434,0.118374,-222.813,206.063,-249.813,3.08984,-0.893066,-0.104492,-9,17,36,39,-33,0,-40,-33,17219
-1.68371,0.429924,0.0572847,-106.5,174.188,-217.563,3.44971,-1.02979,-0.0478516,-22,-2,-27,-12,19,0,38,3,17236
-1.70358,0.35587,0.00675618,-1.625,158.813,-194.25,3.05518,-0.761719,-0.388672,-4,-5,-13,-12,5,-10,2,15,17253
-1.70358,0.35587,0.00675618,-1.625,158.813,-194.25,3.05518,-0.761719,-0.388672,-4,-5,-13,-12,5,-10,2,15,17270
-1.71569,0.289207,-0.0317981,0.5,130.375,-174.5,2.63916,-0.354004,-0.282227,17,8,-18,-6,10,12,18,4,17287
-1.74998,0.225204,-0.0583382,-78.8125,102.375,-169.438,2.12109,-0.173828,-0.352539,3,1,13,6,-12,-5,-16,-4,17304
-1.74998,0.225204,-0.0583382,-78.8125,102.375,-169.438,2.12109,-0.173828,-0.352539,7,15,13,19,-20,-2,-30,-33,17322
-1.90143,0.111893,-0.0820622,-214.375,60.6875,-116.188,1.2373,-0.56543,-0.437012,18,-3,27,18,-34,-15,-39,-26,17339
-1.95297,0.0736295,-0.0912464,-143.813,57,-79,0.844727,-0.854004,-0.445313,-6,-3,-16,-10,33,8,61,18,17357
-1.95297,0.0736295,-0.0912464,-143.813,57,-79,0.844727,-0.854004,-0.445313,-18,-46,-36,-29,25,3,30,42,17375
-1.98783,0.034646,-0.0941877,-13.8125,-2.8125,-4.4375,0.256836,-0.62793,-0.444824,8,9,-11,-8,0,-4,6,-8,17392
-1.98469,0.101893,-0.079171,12.625,-21.3125,55.3125,-0.0966797,-0.735352,-0.68457,-8,-7,1,1,-1,-2,-11,-4,17461
-1.98469,0.101893,-0.079171,12.625,-21.3125,55.3125,-0.0966797,-0.735352,-0.68457,13,17,11,20,-15,-5,-18,-15,17478
-1.99156,0.115967,-0.0861543,8.3125,-12.6875,71.4375,0.332031,-0.637695,-0.69043,-6,27,37,34,-19,-7,-24,-29,17495
-1.98964,0.134725,-0.0912075,27.125,-24.4375,83.75,0.369141,-0.587891,-0.569824,-5,-11,-34,-24,24,5,38,23,17511
-1.97454,0.1699,-0.0933883,46.1875,-39.875,105.375,0.554199,-0.73291,-0.450195,14,-32,-50,-52,40,9,48,40,17529
-1.95041,0.214036,-0.0906838,67.4375,-55.5,114.313,1.62012,-0.881348,-0.326172,-16,-50,-4,-15,16,0,9,21,17546
-1.90286,0.274172,-0.0843799,132.125,-76.3125,155.188,2.44629,-0.783203,-0.120605,0,-55,-9,-24,0,1,-14,4,17563
-1.83847,0.355518,-0.060674,163.375,-130.813,203.875,2.63965,-0.768066,0.00732422,18,30,46,38,-21,-5,-28,-25,17579
-1.83847,0.355518,-0.060674,163.375,-130.813,203.875,2.63965,-0.768066,0.00732422,-40,-17,-40,-15,23,0,26,12,17596
-1.76563,0.439187,-0.0207096,164.063,-157.938,209.5,2.78955,-0.60498,0.321289,2,-36,-28,-15,4,-3,11,18,17612
-1.71239,0.511202,0.0167739,103.625,-128.938,187.25,2.29199,-0.8125,0.227051,6,-45,-22,-31,2,-3,-14,9,17630
-1.67218,0.578276,0.0497204,66.0625,-103.25,180.813,2.06396,-0.602539,0.32959,0,5,48,26,-46,-10,-52,-40,17647
-1.62351,0.631814,0.0823748,86.375,-88.6875,147,1.94727,-0.381348,0.166016,9,71,37,32,-39,0,-30,-37,17664
-1.58094,0.682197,0.117835,59.875,-85,142.063,1.77637,-0.0239258,0.11377,5,71,11,8,-3,9,18,-12,17681
-1.58094,0.682197,0.117835,59.875,-85,142.063,1.77637,-0.0239258,0.11377,1,16,1,-4,-2,0,-2,1,17698
-1.53563,0.721182,0.162296,44.8125,-93.625,129.438,1.39209,0.0986328,0.179199,-1,2,-10,-7,9,-2,9,7,17715
-1.34969,0.803862,0.332598,56.0625,-89.75,79,0.547363,0.412598,0.276367,-4,-20,-11,-7,6,4,-6,-2,17772
-1.28693,0.819671,0.389963,36.75,-76,58,0.250977,0.505371,0.380371,-1,-5,9,2,2,0,-4,1,17789
-1.23724,0.831413,0.434712,18.125,-48.625,26.5625,0.00537109,0.633301,0.475586,-1,6,2,5,-3,3,-6,-8,17806
-1.20524,0.839871,0.461671,-1.3125,-17.25,-10.0625,-0.226074,0.803223,0.525879,-4,-19,4,2,4,0,-5,-7,17823
-1.20524,0.839871,0.461671,-1.3125,-17.25,-10.0625,-0.226074,0.803223,0.525879,1,11,-4,-4,-2,-1,3,0,17839
-1.19875,0.842204,0.465295,-24.4375,18,-43.875,-0.251953,0.823242,0.513672,0,7,-5,-3,-2,0,4,1,17856
-1.22783,0.835004,0.446559,-69.9375,42.875,-72.3125,-0.114746,0.697266,0.364258,1,10,1,0,1,-1,2,0,17873
-1.29897,0.812047,0.400823,-112.375,68.3125,-95.875,0.132324,0.620117,0.224121,3,-1,-5,-2,5,-2,0,2,17889
-1.39064,0.781089,0.342545,-145.688,95.9375,-115.563,0.321289,0.556152,0.132324,-6,-17,1,-1,6,-1,1,1,17908
-1.49717,0.736567,0.272564,-167.563,129,-140.5,0.797852,0.479492,-0.0288086,4,-14,-20,9,6,0,3,5,17924
-1.59966,0.681194,0.198079,-154.125,158.313,-162.688,3.15527,0.141602,-0.485352,-16,71,3,11,2,-1,-6,-6,17941
-1.59966,0.681194,0.198079,-154.125,158.313,-162.688,3.15527,0.141602,-0.485352,-6,-28,-22,12,-12,-11,-43,-10,17959
-1.70812,0.605336,0.112517,-163.938,213.688,-200.188,2.80566,-0.863281,-0.220215,45,70,26,25,-26,-1,-21,7,17976
-1.78432,0.540905,0.0426599,-109.5,197.938,-152.25,3.16797,-1.44482,-0.365234,0,34,1,14,-8,0,15,-10,17993
-1.78619,0.490513,0.00618096,45.8125,119.563,-121.813,2.79736,-1.31104,-0.483398,-2,-42,-20,-22,-3,-3,-14,15,18011
-1.78619,0.490513,0.00618096,45.8125,119.563,-121.813,2.79736,-1.31104,-0.483398,0,-16,2,-4,-12,-4,-7,-6,18028
-1.93524,0.291978,-0.0433483,-183.125,76.125,-127.25,1.26465,-0.715332,-0.291016,2,-1,-6,-6,-4,3,17,8,18088
-1.97553,0.243484,-0.0534755,-110.875,71.5625,-100.063,0.939453,-0.888184,-0.175781,-26,-26,-16,-14,-6,-2,30,52,18105
-1.98333,0.198296,-0.0588999,-24.0625,45.25,-64.3125,0.604492,-0.758301,-0.248047,-40,-6,4,2,-12,-1,-18,2,18122
-1.98333,0.198296,-0.0588999,-24.0625,45.25,-64.3125,0.604492,-0.758301,-0.248047,24,-6,3,5,-2,-4,-11,-10,18140
-1.98108,0.175276,-0.0614286,12.5625,19.8125,-30.375,0.334961,-0.519531,-0.304199,-7,6,7,7,-6,4,-9,-8,18158
-1.97369,0.170233,-0.0623404,32.6875,1.625,-2.125,0.0776367,-0.462402,-0.370605,-7,6,7,7,-6,4,-9,-8,18175
-1.96369,0.168682,-0.0637604,50.125,2.125,-3.3125,-0.105469,-0.490234,-0.532227,-5,11,0,-2,1,-3,12,11,18192
-1.96369,0.168682,-0.0637604,50.125,2.125,-3.3125,-0.105469,-0.490234,-0.532227,-5,-24,-15,-11,9,2,1,-7,18209
-1.96271,0.164879,-0.0643163,33.875,3.5625,-18.5,-0.232422,-0.510254,-0.691895,3,-24,-13,-8,-10,-5,4,17,18227
-1.96967,0.163326,-0.0653279,20.25,0.0625,-10.3125,-0.21582,-0.566895,-0.86084,0,-10,-3,1,-3,-3,-12,-9,18244
-1.97905,0.164934,-0.0723322,21.25,4.0625,22.0625,0.0458984,-0.62793,-0.977539,-5,3,20,12,5,0,1,-5,18261
-1.98611,0.170622,-0.0840124,25.875,6.375,50.8125,0.258301,-0.540527,-0.875,-6,2,5,-7,-6,0,-6,-4,18277
-1.97398,0.184354,-0.0943119,48.4375,-1.5625,72.375,0.28418,-0.55127,-0.369629,-11,8,-2,5,2,2,1,1,18294
-1.94662,0.190526,-0.104389,78.9375,-5.9375,91.25,0.83252,-0.852051,-0.256348,-17,-4,-15,-10,-3,-2,-1,-4,18311
-1.9163,0.230925,-0.0988635,83.5,-55.3125,102.75,2.27002,-0.908203,-0.154297,-4,-1,0,4,3,1,-4,0,18328
-1.86296,0.294407,-0.0763324,136.25,-116.313,153.313,2.48975,-0.815918,0.12793,9,25,24,12,-14,-4,-10,-21,18346
-1.72726,0.506,0.0288807,26.9375,-110.563,177.5,2.12988,-0.643555,0.41748,21,-21,42,40,-43,-12,-89,-31,18418
-1.69654,0.568743,0.0573777,46.25,-94.75,168.25,1.81641,-0.603516,0.251953,5,82,12,12,3,6,21,-10,18435
-1.67281,0.627341,0.0850272,22.8125,-84.25,159.375,1.74072,-0.283691,0.0966797,-1,23,-17,-12,30,6,32,14,18452
-1.67281,0.627341,0.0850272,22.8125,-84.25,159.375,1.74072,-0.283691,0.0966797,-4,9,-27,-20,5,-2,24,14,18470
-1.60993,0.733836,0.155042,33.875,-92.8125,151.438,1.32764,0.090332,0.0991211,2,-29,-11,-7,-2,-8,2,11,18487
-1.60993,0.733836,0.155042,33.875,-92.8125,151.438,1.32764,0.090332,0.0991211,4,-9,-6,-4,4,0,5,6,18504
-1.5582,0.779284,0.20237,53.875,-99.5625,138.938,0.979004,0.148438,0.0893555,-7,-16,-15,-14,11,3,11,7,18521
-1.49951,0.817654,0.254499,59.375,-97.6875,119.063,0.724609,0.276855,0.116211,-5,-7,-6,-4,-1,0,6,4,18538
-1.43532,0.848547,0.310614,54.875,-87.5,94.75,0.405762,0.440918,0.164063,-27,-50,-3,5,-13,-4,-10,-11,18554
-1.36791,0.878594,0.367682,50.6875,-74.1875,74.0625,0.034668,0.571289,0.303223,11,19,7,5,-11,-3,-9,-6,18572
-1.30774,0.903777,0.416558,36.5,-46.0625,43.125,-0.252441,0.687012,0.475586,-18,-10,4,10,-1,-3,-19,-15,18589
-1.26959,0.916956,0.447461,7.375,-14.1875,-1.25,-0.326172,0.730957,0.580078,3,21,19,10,-7,0,-11,-9,18606
-1.2565,0.919573,0.457734,-16.6875,11.4375,-38.8125,-0.237305,0.762207,0.536621,-5,27,8,5,1,0,1,3,18623
-1.2565,0.919573,0.457734,-16.6875,11.4375,-38.8125,-0.237305,0.762207,0.536621,2,0,0,2,-1,-3,-8,2,18641
-1.26913,0.913098,0.442845,-29.9375,42.75,-68.6875,-0.0629883,0.761719,0.447266,1,-20,-12,9,2,1,4,-1,18658
-1.3173,0.898183,0.405854,-73.5625,66.75,-92.3125,0.0942383,0.695801,0.28125,20,36,4,-8,-3,-1,1,9,18675
-1.51525,0.801045,0.261739,-145.063,130.688,-191.25,2.67627,0.179688,-0.117188,-10,-27,-27,-6,14,1,0,3,18732
-1.63602,0.716499,0.166814,-158.688,198.563,-241.5,2.96484,-0.928711,0.0683594,-3,12,21,11,-17,-4,-27,-19,18749
-1.76352,0.561907,0.0210868,-4.9375,183.5,-188.688,2.85986,-1.48828,-0.256348,3,21,6,15,-25,-7,-22,-16,18766
-1.76352,0.561907,0.0210868,-4.9375,183.5,-188.688,2.85986,-1.48828,-0.256348,1,35,-1,-4,2,0,34,0,18783
-1.77981,0.496516,-0.0239872,18.75,146.625,-161.438,2.49365,-1.0708,-0.294434,12,-36,-4,-12,-3,-4,-28,-1,18801
-1.80548,0.440428,-0.0554385,-33,113.75,-139.125,2.06982,-0.372559,-0.132813,-4,24,11,10,6,-7,-2,-5,18818
-1.86689,0.385682,-0.0801875,-147.25,103.938,-134.188,1.70996,-0.165527,-0.123535,-11,18,2,8,1,-3,-1,6,18836
-1.94632,0.341032,-0.102481,-204.938,98.5,-101.25,1.39063,-0.546387,-0.275391,-13,15,-7,-8,-2,0,7,-1,18854
-2.01514,0.297809,-0.124277,-176.813,95.4375,-71.4375,0.985352,-0.772461,-0.419434,-24,-2,14,18,-16,-6,-25,-3,18872
-2.06073,0.268647,-0.138269,-117.5,64.8125,-44.1875,0.625,-0.773926,-0.541016,-10,19,12,14,-14,2,2,3,18889
-2.06073,0.268647,-0.138269,-117.5,64.8125,-44.1875,0.625,-0.773926,-0.541016,13,-22,-29,-26,21,0,26,8,18906
-2.08571,0.244215,-0.150279,28.5,3.9375,9.4375,0.0385742,-0.5,-0.628418,15,-43,-17,-15,3,-5,-4,8,18924
-2.08571,0.244215,-0.150279,28.5,3.9375,9.4375,0.0385742,-0.5,-0.628418,-5,-17,-3,-3,1,0,1,0,18940
-2.0714,0.248006,-0.154559,72.6875,0,9.75,-0.214844,-0.416992,-0.710938,0,-8,1,-3,2,-3,-10,-7,18958
-2.06011,0.254268,-0.155451,57.75,-6.5625,3.6875,-0.385254,-0.562012,-0.709961,3,-9,-12,-14,-2,0,2,1,18974
-2.05427,0.261686,-0.156492,42.3125,-9.875,10.875,-0.311523,-0.529297,-0.690918,-5,11,14,8,-4,-3,-9,-11,18990
-2.04924,0.273124,-0.164474,31.25,-19.375,44.75,0.17627,-0.600098,-0.663086,-1,-18,-29,-5,14,2,20,5,19056
-2.0155,0.297308,-0.16073,61.625,-55.0625,83.25,0.898926,-0.749512,-0.334961,9,-30,-5,-29,5,0,14,12,19073
-2.0155,0.297308,-0.16073,61.625,-55.0625,83.25,0.898926,-0.749512,-0.334961,17,-19,-11,-9,8,1,6,12,19090
-1.97519,0.337112,-0.150513,106.188,-72.3125,92.5625,2.37109,-0.824219,-0.180664,-1,-8,-16,14,-4,-8,-14,-2,19107
-1.91182,0.396374,-0.124572,155.25,-126.625,132.75,2.40771,-0.79248,-0.090332,-1,-8,-16,14,-4,-8,-14,-2,19124
-1.84335,0.462599,-0.080855,143.5,-165.688,146.688,2.69043,-0.935547,0.119629,2,-64,-13,-43,12,1,15,10,19142
-1.77248,0.525016,-0.0342519,139.813,-156.563,146.25,2.44678,-1.1001,0.341309,-5,-42,-14,-27,15,-1,5,13,19159
-1.72146,0.585833,0.0171199,68.3125,-153.75,149.75,2.34326,-0.883301,0.368652,1,-46,-2,-6,-1,-2,-4,14,19176
-1.66861,0.639699,0.067922,67.9375,-137.5,138.25,2.14502,-0.655762,0.305664,14,50,12,6,-5,-4,-3,-7,19193
-1.61505,0.689158,0.116103,68.125,-118.313,133.625,1.9082,-0.488281,0.210938,4,34,2,7,-13,-23,-1,-5,19210
-1.5637,0.734759,0.162431,60.1875,-103.125,128.75,1.50586,-0.015625,0.213867,2,19,-5,-3,-2,2,0,-5,19227
-1.5637,0.734759,0.162431,60.1875,-103.125,128.75,1.50586,-0.015625,0.213867,-7,-10,2,8,-4,-2,-7,-4,19244
-1.50432,0.771253,0.213931,66.6875,-101.188,119,1.11963,0.255371,0.177734,8,9,6,3,-6,-3,-2,-1,19261
-1.44524,0.801555,0.267325,58.125,-95.9375,102.438,0.773438,0.294434,0.166504,-1,6,-1,-4,-14,-4,3,4,19278
-1.37726,0.820737,0.3261,58.25,-88.875,82.875,0.547852,0.292969,0.249512,-2,-48,-11,-10,7,0,6,8,19295
-1.30825,0.833485,0.377696,69.375,-69.3125,51.9375,0.347656,0.430664,0.318359,-7,-5,3,5,1,6,6,-3,19311
-1.16364,0.860093,0.459729,32.4375,7.4375,-25.875,-0.216309,0.752441,0.506348,11,13,-1,-15,0,1,3,7,19377
-1.16141,0.856614,0.453809,-14.6875,30.5625,-56,-0.137695,0.713867,0.509277,-5,5,-12,-2,5,-1,5,2,19394
-1.19252,0.84277,0.427461,-61,52.4375,-87.5625,0.034668,0.65332,0.416992,2,-4,-7,11,-3,-8,-17,-8,19412
-1.26918,0.813098,0.371119,-105.313,78.1875,-123,0.224121,0.724609,0.218262,-10,-44,5,-6,-1,3,-1,-2,19429
-1.26918,0.813098,0.371119,-105.313,78.1875,-123,0.224121,0.724609,0.218262,3,-12,7,-17,-6,-4,-1,-3,19445
-1.3628,0.769465,0.303699,-133.625,102.125,-156.375,0.575195,0.669434,0.0634766,17,65,-18,-12,6,5,4,6,19462
-1.46778,0.70364,0.229785,-158.25,125.938,-210.938,2.26855,0.322266,-0.137207,-1,21,-5,3,14,0,12,4,19479
-1.58109,0.618133,0.145159,-175.5,180.063,-253.5,2.86377,-0.515625,-0.0932617,2,-33,-18,-6,2,0,-1,4,19496
-1.67491,0.538781,0.0786758,-164.813,172.25,-218.188,3.81592,-0.984863,-0.304688,-13,1,7,5,-18,-5,-25,-5,19514
-1.72533,0.468844,0.0201857,-63.25,171.625,-180.063,3.03955,-1.05762,-0.417969,-5,5,6,2,-8,-3,1,-7,19531
-1.75033,0.404897,-0.0178335,-25.6875,127.875,-164.25,2.54541,-0.901367,-0.437012,18,31,10,15,-10,-7,-8,-9,19549
-1.77731,0.348035,-0.0402274,-53.75,89.75,-148.313,2.02881,-0.418945,-0.327637,16,4,-20,-17,18,7,41,23,19567
-1.82527,0.306891,-0.04899,-129.563,50.1875,-109.375,1.7832,-0.206055,-0.223633,-15,-42,-28,-28,22,-1,16,18,19584
-1.82527,0.306891,-0.04899,-129.563,50.1875,-109.375,1.7832,-0.206055,-0.223633,-24,55,22,21,-14,6,-1,-20,19601
-1.87874,0.267815,-0.0588121,-144.5,49.9375,-76.25,1.29834,-0.683105,-0.234863,-18,33,-5,-2,13,6,33,9,19619
-1.91239,0.222011,-0.072194,-94,55.1875,-42.5,0.89209,-0.82959,-0.182617,-18,-7,9,8,-10,-7,-25,-3,19636
-1.9544,0.167518,-0.0937511,-42.75,29.25,-13.125,0.494629,-0.354492,-0.306152,2,-36,1,4,-3,-5,-23,-16,19694
-1.97351,0.157159,-0.097893,-34.875,11.125,-3.875,0.244629,-0.327148,-0.427734,7,-15,-1,-7,-5,-10,-4,1,19711
-1.99091,0.155222,-0.0989322,-27.75,-0.6875,0.4375,-0.000976563,-0.407227,-0.522949,-4,-3,-1,3,8,2,12,8,19728
-2.00716,0.158581,-0.101042,-20.25,-1.3125,7.3125,-0.149414,-0.494629,-0.642578,-7,-2,1,-4,2,1,4,-1,19745
-2.0223,0.164004,-0.107235,-12.5625,5.8125,17.75,-0.163574,-0.566895,-0.71875,9,21,7,-2,-6,2,-2,8,19761
-2.0335,0.16851,-0.114987,-0.25,4.125,30.8125,0.0292969,-0.650391,-0.781738,-4,5,4,9,-8,-2,-15,-18,19779
-2.03589,0.17638,-0.11953,23.25,-15.125,48.1875,0.231934,-0.634766,-0.76416,-8,16,14,35,-4,-5,-16,-15,19796
-2.02859,0.194731,-0.120573,44.0625,-36.0625,69.0625,0.204102,-0.614746,-0.669434,-7,6,-22,-3,-5,-2,-6,-11,19813
-2.02859,0.194731,-0.120573,44.0625,-36.0625,69.0625,0.204102,-0.614746,-0.669434,-25,12,10,5,9,1,12,7,19831
-2.01731,0.213725,-0.117773,38.125,-51.25,84.3125,0.471191,-0.658203,-0.436523,4,1,17,-12,17,4,17,16,19848
-1.99559,0.249745,-0.111687,58.3125,-59.0625,86.375,1.66797,-0.813477,-0.33252,4,-27,7,18,-2,-4,-21,2,19866
-1.95537,0.30099,-0.101708,107.063,-83,124.188,2.19775,-0.82959,-0.176758,-9,-12,-10,14,12,-1,11,3,19883
-1.8952,0.368761,-0.0720448,144.375,-143.063,154.188,2.60547,-1.0542,0.0136719,0,19,-8,-35,1,0,0,4,19900
-1.82399,0.440704,-0.0305363,157,-163.625,166.563,2.62354,-0.959473,0.19043,-15,-31,-12,-13,20,2,9,1,19917
-1.82399,0.440704,-0.0305363,157,-163.625,166.563,2.62354,-0.959473,0.19043,-11,-52,-16,-22,28,4,27,13,19934
-1.77094,0.506539,0.0148706,92.9375,-155.188,157.875,2.45654,-0.950195,0.245117,13,25,42,10,-6,0,-35,-4,19950
-1.57848,0.715246,0.192713,50.125,-106.125,134.813,1.23438,0.0927734,0.15332,-7,14,-2,-4,9,0,2,-3,20013
-1.52978,0.751597,0.240645,45.0625,-98.6875,115.313,0.946777,0.213379,0.135742,0,11,4,-3,3,0,9,4,20030
-1.47789,0.775713,0.290765,39.4375,-88.375,93.8125,0.658691,0.287109,0.166992,-9,-5,-7,-3,-5,2,-7,-2,20048
-1.47789,0.775713,0.290765,39.4375,-88.375,93.8125,0.658691,0.287109,0.166992,-5,-11,2,1,4,2,-1,-3,20065
-1.42234,0.793243,0.340552,46,-81.0625,66.9375,0.460938,0.349609,0.20459,2,11,-1,1,-12,-4,-5,0,20081
-1.36774,0.807887,0.386074,47.0625,-67.5625,42.5,0.210938,0.481445,0.254883,-3,13,-3,-2,-5,0,1,-3,20099
-1.31771,0.822076,0.422516,47.6875,-47.5,21.3125,-0.0664063,0.63623,0.27002,-3,-16,-7,-1,0,-2,-3,-2,20116
-1.27776,0.835072,0.446061,40.125,-19.8125,-1.0625,-0.265137,0.736816,0.341309,3,3,-1,2,-4,-6,-8,-3,20133
-1.26026,0.840725,0.447654,17.75,18.125,-39,-0.265137,0.86377,0.391113,0,4,5,8,-4,-3,-7,-7,20150
-1.27829,0.832183,0.416245,-12.8125,65.625,-94,-0.135254,0.943359,0.331055,1,-6,-3,-3,-5,-1,1,3,20167
-1.27829,0.832183,0.416245,-12.8125,65.625,-94,-0.135254,0.943359,0.331055,9,87,-2,9,21,1,8,2,20184
-1.33896,0.796053,0.346572,-32.875,108.125,-145.625,0.0864258,0.896484,0.185059,-28,-2,13,26,11,0,4,-7,20201
-1.40323,0.738823,0.275006,-46.625,116.813,-191.25,0.558594,0.701172,0.293457,-5,-107,-38,-54,29,5,34,26,20219
-1.47724,0.659665,0.215053,-101.438,101,-242,2.32471,0.0834961,0.0170898,0,-2,44,27,-52,-12,-66,-25,20236
-1.55168,0.581958,0.151482,-107.125,135.5,-230.75,2.76318,-0.852051,0.0854492,4,28,48,71,-60,-9,-63,-46,20254
-1.60442,0.51209,0.0911796,-61.4375,148.875,-199.313,2.91113,-0.733398,0.155762,12,72,49,58,-66,-6,-56,-55,20271
-1.84207,0.251927,-0.0766137,-169.625,119.188,-137.563,2.2627,-0.588379,-0.232422,-7,18,14,7,-2,-2,12,21,20347
-1.84207,0.251927,-0.0766137,-169.625,119.188,-137.563,2.2627,-0.588379,-0.232422,-7,-10,-8,-8,12,2,7,-6,20364
-1.89719,0.204979,-0.100355,-142.938,103,-108.813,1.61914,-0.606445,-0.364258,-7,-10,-8,-8,12,2,7,-6,20381
-1.89719,0.204979,-0.100355,-142.938,103,-108.813,1.61914,-0.606445,-0.364258,3,-7,4,3,-2,-7,-19,-10,20398
-1.94175,0.162585,-0.113589,-117,69.5625,-84.25,0.987793,-0.497559,-0.407227,9,25,4,4,1,0,18,-3,20416
-1.97966,0.135863,-0.117557,-102.813,34.5625,-56.9375,0.571289,-0.389648,-0.439941,7,-2,-5,-8,-10,-3,-9,-6,20434
-2.05068,0.0914362,-0.115727,-72.3125,4.375,-28.125,0.265625,-0.410156,-0.558594,7,-2,-5,-8,-10,-3,-9,-6,20450
-2.06842,0.0841116,-0.113847,-35.625,-0.875,-13,0.0805664,-0.54248,-0.551758,-7,-13,-4,-10,7,-1,-1,-5,20468
-2.06842,0.0841116,-0.113847,-35.625,-0.875,-13,0.0805664,-0.54248,-0.551758,-3,-17,-5,2,9,5,11,16,20484
-2.07417,0.0834867,-0.111421,-0.5625,-3.6875,-10.875,-0.14209,-0.46875,-0.522461,-4,-21,-15,-9,-1,-2,0,-13,20502
-2.0714,0.0912686,-0.106221,25.0625,-16.6875,-3.8125,-0.307617,-0.414551,-0.530762,-4,-3,10,-1,1,-2,-7,2,20519
-2.0714,0.0912686,-0.106221,25.0625,-16.6875,-3.8125,-0.307617,-0.414551,-0.530762,-2,7,1,18,-2,-5,-17,-14,20536
-2.05511,0.106359,-0.100918,42,-19.25,28.25,0.192871,-0.605469,-0.583984,7,2,-7,-4,-1,-2,-3,-5,20553
-2.04103,0.11817,-0.100279,54.3125,-27,44.5,0.17041,-0.544434,-0.508301,0,2,2,9,-9,-4,-6,-10,20570
-2.04103,0.11817,-0.100279,54.3125,-27,44.5,0.17041,-0.544434,-0.508301,-19,2,-3,13,7,-3,5,5,20587
-2.02301,0.134944,-0.0990038,60,-37.3125,64.8125,0.291016,-0.577148,-0.423828,-16,0,-10,-7,6,-4,8,2,20604
-1.86588,0.332883,-0.0501025,120.75,-151,179.125,2.77539,-0.854004,0.194336,-19,-28,3,5,5,-3,8,19,20676
-1.86588,0.332883,-0.0501025,120.75,-151,179.125,2.77539,-0.854004,0.194336,-2,-47,-30,-22,30,1,16,24,20693
-1.79841,0.468712,0.00149866,46.1875,-108.938,171.625,2.40967,-0.843262,0.359375,12,-21,20,12,-31,-8,-57,-15,20711
-1.79841,0.468712,0.00149866,46.1875,-108.938,171.625,2.40967,-0.843262,0.359375,3,60,36,30,-30,-1,-19,-34,20728
-1.75386,0.53064,0.0263616,93.625,-97.3125,160.875,2.2998,-0.739746,0.240723,0,44,0,4,-1,0,3,-15,20744
-1.75386,0.53064,0.0263616,93.625,-97.3125,160.875,2.2998,-0.739746,0.240723,-7,24,-3,5,-4,6,6,-8,20761
-1.67675,0.656282,0.0823577,45.875,-91.3125,167.75,1.6167,0.0244141,0.157227,-6,10,-17,-15,24,7,25,7,20778
-1.67675,0.656282,0.0823577,45.875,-91.3125,167.75,1.6167,0.0244141,0.157227,-4,-15,-21,-9,26,-2,12,7,20796
-1.64089,0.710212,0.118717,34.1875,-93.1875,161.125,1.24121,0.166992,0.189941,0,-18,-3,-11,1,-2,-5,3,20813
-1.64089,0.710212,0.118717,34.1875,-93.1875,161.125,1.24121,0.166992,0.189941,1,-4,0,9,-4,3,-1,2,20830
-1.64089,0.710212,0.118717,34.1875,-93.1875,161.125,1.24121,0.166992,0.189941,-6,-3,-6,-8,-2,1,0,-3,20847
-1.48091,0.831105,0.261154,66.375,-84,89.4375,0.273438,0.43457,0.208496,-3,-8,0,3,14,8,2,2,20864
-1.48091,0.831105,0.261154,66.375,-84,89.4375,0.273438,0.43457,0.208496,0,-3,1,-3,-3,-5,-4,-2,20881
-1.48091,0.831105,0.261154,66.375,-84,89.4375,0.273438,0.43457,0.208496,-4,-4,5,-5,-11,-4,1,0,20898
-1.35612,0.878765,0.354244,57.3125,-54,24.6875,-0.13623,0.785645,0.287109,-4,-4,5,-5,-11,-4,1,0,20915
-1.30211,0.889362,0.386765,59.875,-39.125,-26.125,-0.250488,1.12695,0.24707,-11,-5,-9,-39,10,6,12,3,20931
-1.43374,0.798476,0.327299,-157.688,58.8125,-138.563,0.260742,0.285645,0.324707,15,43,55,45,-17,-9,-25,-13,20993
-1.58704,0.666512,0.205685,-89,150.813,-218.375,1.73193,0.353027,0.24707,0,40,68,74,-46,-17,-60,-38,21010
-1.58704,0.666512,0.205685,-89,150.813,-218.375,1.73193,0.353027,0.24707,-5,111,32,-22,-46,2,14,-18,21027
-1.6575,0.569011,0.117128,-54.625,221.188,-268.5,2.52979,0.192383,-0.0595703,0,64,-15,-24,-11,-6,37,3,21044
-1.6575,0.569011,0.117128,-54.625,221.188,-268.5,2.52979,0.192383,-0.0595703,14,-75,-62,-39,65,25,49,44,21061
-1.82052,0.410984,0.00918066,-164.375,163.75,-204.25,2.77783,-0.494141,-0.121094,17,-112,-25,-25,32,-2,1,16,21079
-1.87714,0.32732,-0.0260185,-125.813,156.5,-204.75,3.11768,-0.512207,-0.0791016,9,-78,4,-3,13,8,-27,18,21096
-1.87714,0.32732,-0.0260185,-125.813,156.5,-204.75,3.11768,-0.512207,-0.0791016,-12,-19,5,-7,-2,-2,3,2,21113
-1.95439,0.192176,-0.0678124,-95.8125,102.875,-146.563,2.47705,-0.154297,-0.234375,-11,-23,-10,-8,-2,-10,-8,-5,21129
-1.95439,0.192176,-0.0678124,-95.8125,102.875,-146.563,2.47705,-0.154297,-0.234375,0,-6,-4,-9,-9,3,-3,8,21146
-1.99032,0.13889,-0.078003,-98.3125,86.375,-129.375,1.84473,-0.362793,-0.171875,-11,-3,4,1,10,29,-4,1,21163
-2.02657,0.0847645,-0.0839752,-100.813,71.8125,-114,1.20459,-0.418457,-0.254883,14,56,30,20,-33,-4,-20,-40,21180
-2.06367,0.0421412,-0.0878054,-105.5,60,-92.875,0.67334,-0.361328,-0.209961,8,10,-35,-33,44,8,62,30,21196
-2.10009,-0.00141674,-0.0880943,-88.4375,40.75,-71.5625,0.613281,-0.332031,-0.458008,1,-36,-30,-25,14,2,14,41,21213
-2.10009,-0.00141674,-0.0880943,-88.4375,40.75,-71.5625,0.613281,-0.332031,-0.458008,1,-14,-15,-12,17,11,8,3,21230
-2.14269,-0.0230047,-0.0873865,-36.0625,-3.4375,4.625,0.0522461,-0.759766,-0.574707,-6,-25,-7,-3,4,3,-1,2,21248
-2.13907,-0.00818917,-0.0874722,17.875,-16,25.625,-0.166992,-0.704102,-0.579102,4,16,0,-1,-14,-2,-1,3,21305
-2.13907,-0.00818917,-0.0874722,17.875,-16,25.625,-0.166992,-0.704102,-0.579102,-3,5,11,6,-4,-6,3,3,21322
-2.09892,0.0288874,-0.0831252,66.6875,-23,42.5,0.253906,-0.459473,-0.822754,-13,8,26,-11,1,1,7,-8,21339
-2.08621,0.052535,-0.0864609,54.6875,-32.375,74,0.138184,-0.537109,-0.601074,12,2,-3,-17,-3,0,3,3,21357
-2.07471,0.0912495,-0.0910564,33.75,-45.1875,107.438,0.211426,-0.730469,-0.416992,8,-18,-18,-39,0,-3,6,5,21374
-2.06426,0.130754,-0.0920263,28.75,-60.4375,116.875,0.955566,-0.816895,-0.316895,-11,-21,-33,-19,-4,-6,-4,3,21391
-2.06426,0.130754,-0.0920263,28.75,-60.4375,116.875,0.955566,-0.816895,-0.316895,2,11,-9,10,-12,-3,-8,-88,21408
-2.06426,0.130754,-0.0920263,28.75,-60.4375,116.875,0.955566,-0.816895,-0.316895,13,46,42,38,-28,-6,-23,-2,21425
-1.9867,0.266947,-0.071685,141.813,-131.875,198.875,2.59717,-0.640625,-0.14502,8,13,3,-14,25,4,60,61,21441
-1.92878,0.352485,-0.0430403,141.063,-164.75,197.688,2.76367,-0.755371,0.143066,-20,-14,-79,-43,62,15,82,77,21458
-1.92878,0.352485,-0.0430403,141.063,-164.75,197.688,2.76367,-0.755371,0.143066,6,-103,-38,-27,33,-8,-10,37,21475
-1.87138,0.433825,-0.0188166,137.938,-136.188,199.938,2.52979,-0.696289,0.175293,-10,-53,12,-1,-22,-4,-28,-9,21492
-1.78613,0.581795,0.0216395,99.0625,-92.625,182.125,2.23682,-0.563965,0.192871,-7,92,37,28,-35,55,0,-11,21509
-1.78613,0.581795,0.0216395,99.0625,-92.625,182.125,2.23682,-0.563965,0.192871,7,13,-20,-17,-11,-29,24,11,21526
-1.75267,0.650412,0.0451296,56.625,-92.625,182.188,2.13232,-0.0976563,0.0805664,3,0,-6,1,-25,-15,0,-1,21543
-1.75267,0.650412,0.0451296,56.625,-92.625,182.188,2.13232,-0.0976563,0.0805664,-7,-15,-14,1,14,10,0,-2,21561
-1.62117,0.829697,0.155051,83.75,-92.8125,160.438,0.990723,-0.000976563,0.211426,2,-13,-3,-22,17,4,0,3,21631
-1.48403,0.909009,0.229659,110.938,-51.25,97.625,0.375488,0.573242,0.260742,-7,-7,2,-2,-11,-10,-8,-7,21649
-1.42243,0.944284,0.26127,88.6875,-27.3125,53.6875,-0.191406,0.822754,0.277344,-1,-3,-3,6,-12,-6,-10,-9,21666
-1.42243,0.944284,0.26127,88.6875,-27.3125,53.6875,-0.191406,0.822754,0.277344,-1,-2,-1,1,-31,-4,-8,-2,21683
-1.36792,0.970039,0.294825,-2.625,2.5,-39.4375,-0.149902,0.895996,0.30957,-1,-2,-1,1,-31,-4,-8,-2,21700
-1.36792,0.970039,0.294825,-2.625,2.5,-39.4375,-0.149902,0.895996,0.30957,2,-2,-2,2,8,5,4,6,21717
-1.38064,0.961619,0.290738,-43.5,16.5,-76.1875,-0.0488281,0.884277,0.273438,-5,-2,0,7,14,0,4,-1,21734
-1.47689,0.879996,0.233738,-81.625,45.1875,-147.25,0.174805,0.628418,0.259766,0,4,-4,-15,1,-3,1,4,21751
-1.47689,0.879996,0.233738,-81.625,45.1875,-147.25,0.174805,0.628418,0.259766,4,-19,-21,-25,4,4,3,4,21769
-1.5401,0.820229,0.191695,-93.4375,72.0625,-177.375,0.479492,0.553711,0.244629,-3,-11,-14,12,5,-3,7,1,21786
-1.5401,0.820229,0.191695,-93.4375,72.0625,-177.375,0.479492,0.553711,0.244629,1,-20,-6,-7,-3,-8,-5,-1,21803
-1.70469,0.650062,0.0834933,-159.313,139.625,-246.063,2.42529,-0.268066,0.128418,0,7,10,20,3,5,-9,-3,21821
-1.70469,0.650062,0.0834933,-159.313,139.625,-246.063,2.42529,-0.268066,0.128418,0,-8,-18,-8,-17,-8,-30,-16,21837
-1.78232,0.563291,0.0414069,-153.625,140.313,-228.063,2.76611,-0.640625,0.0488281,-6,17,12,28,-23,-7,-11,-17,21854
-1.89375,0.387263,-0.0307095,-105.25,158.813,-217.625,2.78857,-0.499023,-0.0820313,13,29,-6,7,5,2,27,5,21872
-1.89375,0.387263,-0.0307095,-105.25,158.813,-217.625,2.78857,-0.499023,-0.0820313,31,-68,-39,-26,27,-1,14,18,21889
-2.04257,0.164224,-0.0825755,-144.75,107.313,-154.5,1.96484,-0.330078,-0.183594,29,-7,-17,-8,20,4,12,8,21944
-2.09169,0.104181,-0.0901387,-138,89.4375,-120.313,1.33008,-0.510254,-0.271973,25,-19,10,11,-31,-14,-49,-26,21962
-2.09169,0.104181,-0.0901387,-138,89.4375,-120.313,1.33008,-0.510254,-0.271973,8,15,-11,-9,23,8,45,13,21978
-2.16649,0.0171462,-0.0927888,-87.9375,39.8125,-67.0625,0.574219,-0.410645,-0.333984,-11,-32,-36,-31,35,5,35,26,21995
-2.18779,-0.0118745,-0.0895621,-50.9375,21.4375,-47.25,0.469238,-0.444824,-0.49707,-13,-28,0,1,3,-1,-13,-10,22013
-2.18779,-0.0118745,-0.0895621,-50.9375,21.4375,-47.25,0.469238,-0.444824,-0.49707,-2,-19,5,6,-4,-2,1,2,22030
-2.18779,-0.0118745,-0.0895621,-50.9375,21.4375,-47.25,0.469238,-0.444824,-0.49707,-4,-10,5,1,-5,-4,-7,-11,22046
-2.18534,-0.0124744,-0.0895342,25.875,-5.875,13.25,-0.133789,-0.858887,-0.618652,-1,1,2,-2,6,-1,-1,4,22063
-2.16631,0.00299705,-0.0906084,66,-12.9375,24.375,-0.240723,-0.747559,-0.702637,-3,18,14,16,-9,-3,-11,-13,22081
-2.16631,0.00299705,-0.0906084,66,-12.9375,24.375,-0.240723,-0.747559,-0.702637,-2,10,-1,-3,3,-1,2,-3,22099
-2.12527,0.0246624,-0.0929375,78.5,-22.25,43.5,0.222168,-0.506348,-0.804688,-1,0,-12,-5,3,-1,1,-1,22116
-2.11364,0.0494176,-0.0976658,54.1875,-33.75,79.0625,0.16748,-0.435059,-0.605469,12,-4,-17,-8,2,1,5,10,22134
-2.11364,0.0494176,-0.0976658,54.1875,-33.75,79.0625,0.16748,-0.435059,-0.605469,6,-1,12,-23,8,2,6,4,22151
-2.11364,0.0494176,-0.0976658,54.1875,-33.75,79.0625,0.16748,-0.435059,-0.605469,-13,-4,30,4,-11,-7,-11,-7,22168
-2.08709,0.118811,-0.112889,40.0625,-40.875,113.938,1.24023,-0.533203,-0.219727,-8,11,21,-7,-19,-6,-23,-12,22184
-2.05623,0.17147,-0.119936,91.375,-54.75,142,2.25732,-0.57959,-0.0605469,-2,51,10,40,-21,-1,-22,-13,22202
-1.90532,0.421883,-0.068969,150.875,-150.688,210.625,2.58252,-0.744629,0.145996,14,15,24,20,-26,-9,-36,-18,22277
-1.79967,0.58093,-0.0147476,123.875,-121.438,193.625,2.3667,-0.388672,0.167969,6,33,25,26,-35,-7,-32,-22,22294
-1.79967,0.58093,-0.0147476,123.875,-121.438,193.625,2.3667,-0.388672,0.167969,-1,54,13,11,1,7,16,-3,22311
-1.7445,0.652836,0.0192584,101.563,-119,185.75,2.23145,-0.120605,0.0400391,-1,14,-5,3,3,0,5,0,22328
-1.7445,0.652836,0.0192584,101.563,-119,185.75,2.23145,-0.120605,0.0400391,-4,-1,2,3,-17,-5,0,0,22345
-1.7445,0.652836,0.0192584,101.563,-119,185.75,2.23145,-0.120605,0.0400391,0,24,-3,-6,9,1,3,-1,22362
-1.55685,0.826461,0.185804,79,-138.688,142.813,0.901367,0.187988,0.0957031,3,0,-6,-2,1,2,2,5,22379
-1.55685,0.826461,0.185804,79,-138.688,142.813,0.901367,0.187988,0.0957031,2,-20,-12,-10,10,-1,9,10,22396
-1.38083,0.885769,0.326535,99.25,-109.5,82.5625,0.542969,0.517578,0.111816,-1,-29,-5,-6,1,-2,-7,0,22413
-1.38083,0.885769,0.326535,99.25,-109.5,82.5625,0.542969,0.517578,0.111816,-4,-19,6,0,-6,-2,-13,-5,22430
-1.29424,0.904583,0.391992,83.3125,-85.9375,50.3125,0.17041,0.679688,0.257324,0,9,13,9,-7,-6,-2,-1,22446
-1.29424,0.904583,0.391992,83.3125,-85.9375,50.3125,0.17041,0.679688,0.257324,1,1,3,2,-15,-5,-7,-5,22464
-1.29424,0.904583,0.391992,83.3125,-85.9375,50.3125,0.17041,0.679688,0.257324,0,4,-1,-3,2,-3,-2,0,22481
-1.11389,0.918599,0.492559,28.375,12.875,-67.875,-0.247559,1.01025,0.584473,-18,-7,-6,-9,4,3,3,-1,22498
